acc_x_0,acc_y_0,acc_z_0,gyro_x_0,gyro_y_0,gyro_z_0,acc_x_100,acc_y_100,acc_z_100,gyro_x_100,gyro_y_100,gyro_z_100,acc_x_200,acc_y_200,acc_z_200,gyro_x_200,gyro_y_200,gyro_z_200,acc_x_300,acc_y_300,acc_z_300,gyro_x_300,gyro_y_300,gyro_z_300,acc_x_400,acc_y_400,acc_z_400,gyro_x_400,gyro_y_400,gyro_z_400,acc_x_500,acc_y_500,acc_z_500,gyro_x_500,gyro_y_500,gyro_z_500,acc_x_600,acc_y_600,acc_z_600,gyro_x_600,gyro_y_600,gyro_z_600,acc_x_700,acc_y_700,acc_z_700,gyro_x_700,gyro_y_700,gyro_z_700,acc_x_800,acc_y_800,acc_z_800,gyro_x_800,gyro_y_800,gyro_z_800,acc_x_900,acc_y_900,acc_z_900,gyro_x_900,gyro_y_900,gyro_z_900,acc_x_1000,acc_y_1000,acc_z_1000,gyro_x_1000,gyro_y_1000,gyro_z_1000,shift,label
-0.3567361,0.0,10.10353,-0.4274809,1.091603,-0.9770992,1.106121,0.07900865,10.09635,-0.6335878,1.152672,-2.465649,0.6440403,0.08140286,10.18254,-0.2366412,1.580153,-1.343511,4.498705,0.4070143,10.26155,-1.229008,0.3053435,-3.419847,18.31564,0.1149217,11.17613,-3.51145,-0.7175572,35.96947,-7.043741,-3.100491,9.579201,-1.129771,-13.20611,12.0458,-13.28303,-2.070984,9.916783,2.465649,6.984733,-50.98474,-0.1460463,0.3399766,10.07959,-0.8931297,2.175573,-16.55725,-0.01915361,-0.06703765,10.08198,-0.05343511,1.633588,-15.59542,-0.237026,-0.08858546,10.12268,-1.152672,0.4885496,-2.328244,-0.1891419,-0.08858546,10.19691,-0.5496183,1.343511,-1.244275,-16,1
0.0,-0.04788403,10.09874,-0.8549618,1.526718,-1.389313,0.3567361,-0.1795651,10.1179,-0.5954198,1.656489,4.862596,2.825158,-0.05027823,9.895236,-0.1068702,3.473282,-5.572519,6.888118,-0.5434838,10.14663,-2.51145,-2.832061,-32.62595,0.1819593,-0.5602432,10.59674,0.4961832,-1.015267,-7.770992,-7.216124,-0.007182605,11.49456,-1.259542,2.816794,35.40458,-4.41012,0.7350199,9.842564,1.114504,2.21374,-8.893129,-1.192312,-0.2178724,10.11311,-0.832061,0.7022901,-12.52672,0.05027823,0.03112462,10.1179,-0.7328244,0.3664122,2.198473,0.08858546,0.2896984,10.00297,-1.335878,1.328244,-1.549618,0.1532289,-0.1987187,10.24479,0.4961832,2.450382,-2.251908,-5,1
0.1197101,0.07661445,10.1586,-0.9312977,1.717557,3.305344,6.974309,0.004788404,10.97502,-1.076336,2.137405,-0.2900764,12.29423,1.910573,11.30782,-1.015267,-2.496183,-1.923664,4.086902,-0.914585,10.00776,-4.114504,6.641222,64.67939,-19.58696,0.8882488,9.23683,-1.374046,4.274809,-60.23664,-1.058237,-0.01915361,10.12987,-1.175573,1.229008,-1.419847,-0.2585738,-0.06224924,10.10593,-1.641221,1.091603,7.526718,-0.2035071,-0.1604115,10.14184,-0.7633588,0.610687,-1.564886,-0.1221043,-0.05746084,10.05565,-0.8396947,1.045802,-2.900763,-0.1484405,-0.07422025,10.09395,-0.7557252,0.648855,4.221374,-0.01197101,-0.09576806,10.08677,-0.6641222,1.076336,-0.2366412,0,1
0.6847417,-0.1173159,10.20409,0.4656488,3.007634,0.5343512,1.355118,-0.004788404,10.20648,-1.312977,0.9770992,-8.610687,19.6127,3.198653,11.0684,-1.442748,1.48855,32.9084,-10.55125,-4.977545,9.315839,-6.183206,1.938931,-5.900764,-11.85369,-2.542642,9.746795,2.961832,1.198473,-59.48855,-0.9097966,1.118092,10.16339,-0.740458,1.022901,-3.442748,-0.5051765,-0.09097966,10.1586,-0.740458,0.8931297,-3.183206,-0.1580173,-0.06943185,10.04846,-0.870229,1.259542,-1.396947,-0.213084,-0.04788403,10.10353,-0.3282443,1.19084,-1.244275,-0.1484405,-0.07661445,10.12029,-0.8091603,0.9847328,-1.259542,-0.1580173,-0.04070143,10.09874,-0.7328244,1.045802,-1.381679,2,1
0.1675941,0.01675941,10.18733,-0.8931297,0.9541985,-0.7175572,0.5650316,0.009576807,10.13226,-0.8244275,1.259542,1.099237,-0.1867477,-0.02394202,10.15141,-0.870229,1.229008,3.709924,1.343147,0.06943185,10.17775,-0.9847328,1.671756,-6.229008,19.6127,4.206613,11.25035,-3.343511,3.335878,103.2366,-19.6133,1.170765,9.399636,0.9694656,1.908397,-92.61069,-7.098808,-2.810793,9.945514,-2.526718,0.4198473,61.59542,-0.2298434,0.2322376,10.0317,-0.3282443,1.503817,-6.206107,-0.5530606,0.01915361,10.12029,-0.9541985,1.21374,-0.8778625,-0.1675941,-0.2992752,10.09395,-0.7862596,0.648855,-0.9312977,-0.04070143,-0.1077391,10.15381,-0.8625955,1.21374,-2.450382,-19,1
1.06542,0.1053449,10.10114,-1.351145,1.221374,9.015267,4.690241,-1.355118,10.40041,-1.175573,-0.3053435,-11.46565,9.947908,0.3399766,11.79144,-1.900763,-3.618321,41.77099,-1.831564,-1.268927,10.51294,-3.358779,-4.396946,1.312977,-14.85602,2.348712,10.38365,-0.3969466,-0.7862596,14.27481,-0.9720459,-1.005565,9.964667,-0.8473283,-0.1450382,-6.938931,-0.08140286,-0.2106898,10.12029,0.351145,2.282443,-4.503817,-0.04788403,0.01197101,10.14902,-1.045802,0.7633588,-1.099237,-0.05746084,-0.237026,10.11071,-0.7175572,1.343511,-5.267176,-0.5123591,0.06943185,10.1179,-0.7251908,1.137405,0.7862596,-0.1292869,0.05027823,10.12029,-1.19084,0.7022901,-0.9236641,5,1
-0.3280056,-0.1867477,10.30465,-0.610687,1.0,5.793893,1.051055,-0.02633622,10.20409,-1.122137,0.6412213,2.480916,1.029507,0.06703765,10.15141,-0.6183206,2.114504,-3.152672,0.9959879,0.1197101,10.11071,-1.725191,0.2977099,-8.78626,19.6127,1.989582,11.04206,-1.916031,-2.305344,74.31298,-17.04672,-0.3878607,9.466674,2.236641,-1.847328,-39.32061,-7.917625,-2.806004,9.849746,0.05343511,1.900763,-36.99237,-0.4955997,0.9816227,10.23521,-1.21374,1.885496,-16.28244,-0.4668693,-0.1771709,10.18015,-1.251908,0.9236641,-2.480916,-0.1795651,0.1723825,10.12987,-0.610687,1.007634,-0.961832,-0.2322376,0.01197101,10.10593,-0.3664122,0.9847328,-1.435114,-17,1
-0.004788404,-0.1149217,10.09635,-0.3969466,1.343511,0.07633588,0.3064578,0.01436521,10.14184,-0.6946565,0.3206107,-3.0,5.770026,-0.3926491,10.22564,-4.366412,-0.6717557,6.770992,4.781221,-0.4285621,11.4395,2.51145,-6.40458,22.94657,-1.788469,-0.225055,9.866506,-3.152672,-1.251908,15.51908,-7.026982,1.089362,10.6542,0.6335878,-1.473282,7.496183,-3.380613,0.002394202,10.14423,-1.534351,1.954198,-7.282443,-1.233014,0.0,10.21366,-0.08396947,1.160305,-8.015267,-0.05267244,-0.1149217,10.1155,-1.229008,0.3129771,-2.549618,0.08140286,-0.08379706,10.10593,-0.7022901,1.732824,0.9770992,0.01197101,-0.03112462,10.1155,-0.7480916,1.282443,-1.351145,-2,1
-0.4668693,-0.1149217,10.18254,-0.6412213,1.412214,1.389313,0.4548983,-0.08379706,10.14663,-0.8854962,1.145038,-1.412214,0.02394202,0.02154782,10.09156,-0.3435115,1.435114,-0.5725191,0.2537854,0.02394202,10.12029,-0.351145,1.122137,0.870229,9.892841,1.23062,10.35732,-1.366412,0.5877862,-18.92366,5.837064,-5.600038,10.52252,-3.916031,0.3740458,1.832061,-17.16643,3.569755,9.809045,-5.78626,2.862595,-60.69466,-1.352724,-0.5626374,10.01734,0.259542,0.610687,10.70229,-0.28491,-0.007182605,10.11071,0.007633588,0.8091603,-4.534351,-0.08379706,-0.08379706,10.1179,0.0,0.8931297,-0.8931297,-0.2178724,0.2394202,10.12508,0.1908397,1.221374,-1.251908,-20,1
-0.03591302,-0.09576806,10.04846,-0.1068702,1.152672,-0.3587786,0.2035071,-0.007182605,10.1562,-0.5419847,0.5343512,-2.70229,4.853047,-0.4836287,10.08198,-2.099237,-0.1526718,1.580153,7.673417,-0.6224924,9.576807,-0.2290076,-0.09923664,29.9771,-2.238579,0.08858546,10.79546,-1.648855,-6.534351,11.92366,-6.509834,0.06224924,10.14184,2.10687,-6.877862,12.89313,-4.022259,0.3687071,10.2831,0.9007633,3.48855,-19.05343,-1.467646,0.07422025,10.06762,-0.2671756,0.7557252,-8.450381,-0.2106898,-0.2011129,10.14184,-1.007634,0.5038168,-5.229008,0.1077391,-0.1149217,10.08677,-0.3129771,1.40458,-0.519084,0.04070143,-0.03591302,10.1562,-0.5038168,1.274809,-0.480916,-3,1
0.02873042,-0.1101333,10.04368,-0.7633588,1.167939,9.351145,0.8451532,0.03351882,10.18493,-0.4732824,1.160305,-2.473282,-1.872266,-0.3615245,10.42436,1.335878,-0.480916,12.92366,2.221819,0.1508347,10.12987,-1.206107,1.694656,-9.862596,19.6127,2.185906,10.84095,-2.038168,0.1374046,60.76336,-19.6133,0.4333505,9.291897,-0.1984733,-2.946565,-58.24428,-7.015011,-3.359065,9.995792,-0.2366412,1.129771,11.25191,-0.4333505,0.9409212,10.06044,-0.7328244,1.534351,-19.57252,-0.3902549,-0.1292869,10.01495,-1.007634,0.870229,-1.549618,-0.2011129,0.2633622,10.11311,-0.8625955,1.21374,-0.8473283,-0.1604115,-0.02633622,10.09395,0.2366412,1.274809,-0.961832,-16,1
0.7158663,0.06464344,10.05804,-1.030534,1.51145,6.10687,5.655105,-0.3280056,12.44985,-0.6183206,2.259542,-13.32824,10.10353,0.7852982,10.45787,-0.6259542,1.099237,28.81679,1.637634,-1.63524,10.14663,4.839694,-1.381679,14.92366,-15.27261,2.272097,9.787497,-1.664122,0.1221374,7.839694,-1.517924,0.617704,10.24479,-2.251908,-0.3740458,1.603053,-0.04548983,-0.1675941,10.1155,0.3053435,2.358779,-3.770992,-0.1029507,0.03830723,10.12508,-1.076336,1.21374,-0.8931297,0.02873042,-0.2873042,10.15141,-0.6259542,0.9847328,-5.305344,-0.2561796,-0.1556231,10.16339,-0.7709923,1.282443,-0.5572519,-0.09337386,0.06224924,10.16578,-1.229008,0.4045802,-1.251908,4,1
0.2896984,-0.1532289,10.10114,-0.5267176,1.229008,-1.389313,0.213084,0.05267244,10.16339,-1.396947,1.396947,2.549618,0.5674258,0.08619126,10.1179,-0.961832,1.221374,-3.374046,1.216254,0.1364695,10.12029,-0.5267176,1.519084,-10.71756,6.945579,1.194707,10.33816,0.3664122,1.954198,-13.51908,14.4538,-2.983175,10.67575,-2.145038,1.083969,9.061069,-19.6133,8.42759,8.992621,0.6641222,-1.145038,-12.0229,-1.671153,-0.5051765,9.967062,-0.7938931,0.06870229,36.35878,-0.3495534,-0.344765,10.10832,-0.08396947,0.8549618,-13.53435,-0.2298434,-0.03830723,10.13705,-1.29771,0.8167939,-2.748092,-0.1651999,0.1915361,10.1179,-0.5267176,0.9694656,-1.343511,-20,1
1.029507,0.06703765,10.15141,-0.6183206,2.114504,-3.152672,0.9959879,0.1197101,10.11071,-1.725191,0.2977099,-8.78626,19.6127,1.989582,11.04206,-1.916031,-2.305344,74.31298,-17.04672,-0.3878607,9.466674,2.236641,-1.847328,-39.32061,-7.917625,-2.806004,9.849746,0.05343511,1.900763,-36.99237,-0.4955997,0.9816227,10.23521,-1.21374,1.885496,-16.28244,-0.4668693,-0.1771709,10.18015,-1.251908,0.9236641,-2.480916,-0.1795651,0.1723825,10.12987,-0.610687,1.007634,-0.961832,-0.2322376,0.01197101,10.10593,-0.3664122,0.9847328,-1.435114,-0.1436521,-0.1101333,10.05804,-0.8244275,0.7938931,-1.610687,-0.1628057,-0.05985504,10.11071,-0.6335878,1.183206,-1.274809,3,1
0.248997,0.1005565,10.1562,-0.9312977,1.671756,1.022901,2.695871,-0.2896984,10.35492,-1.091603,0.6183206,1.793893,16.23269,2.410961,10.32619,-0.06870229,0.480916,7.610687,-1.865083,-3.275268,9.890448,-4.351145,-3.038168,43.0229,-17.31965,0.4237737,9.416395,-0.6335878,-2.519084,-58.74046,-0.605733,0.2011129,10.18493,-0.4045802,1.21374,-8.938931,-0.4525041,0.1508347,10.14184,-1.358779,0.8778625,5.931298,-0.1819593,-0.07900865,10.09635,-0.8244275,0.4274809,-1.053435,-0.1268927,-0.01675941,10.16339,-0.7251908,1.328244,-1.259542,0.06703765,-0.06943185,10.12508,-0.832061,0.8778625,4.305344,-0.06943185,-0.08140286,10.13945,-0.7328244,0.9694656,0.02290076,1,1
0.01197101,-0.05267244,10.09874,-1.061069,1.641221,-1.122137,0.2777274,0.02633622,10.11071,-0.8549618,1.129771,2.480916,4.091691,-0.05027823,10.17057,-0.6793893,-0.4198473,-6.198473,5.655105,-0.1292869,11.02769,0.6183206,-1.137405,-36.31298,-0.2777274,-0.5243302,10.31422,1.198473,-0.3053435,-1.923664,-6.129156,0.7565677,9.876082,-1.793893,4.465649,26.0229,-4.747702,1.412579,10.21606,0.2900764,1.137405,-3.435115,-0.9983821,-0.3064578,10.08198,-0.519084,0.8549618,-9.091603,0.07900865,-0.05746084,10.08198,-0.8549618,0.6717557,3.21374,0.3782839,-0.7565677,10.39084,5.641222,3.290076,-9.625955,-0.03591302,0.09816227,10.04128,-1.061069,2.435115,-1.175573,-4,1
0.05985504,0.01436521,10.12508,-0.2290076,1.083969,-1.824428,0.629675,0.09816227,10.18015,-0.4656488,0.8931297,-4.290076,0.6991069,-0.02154782,10.22085,0.1526718,1.198473,-4.801527,3.368642,0.01915361,10.1562,-1.083969,1.435114,-5.076336,16.16086,1.228225,11.01093,-0.06870229,-0.4885496,23.69466,-4.74052,-0.8499416,10.27112,-3.038168,-12.44275,25.51145,-14.10424,0.7972692,8.738836,2.564885,0.7862596,-72.64886,-0.2106898,-0.09816227,10.08198,-0.6030535,1.21374,-6.572519,-0.2753332,-0.09576806,10.13226,0.3053435,1.259542,-16.03053,-0.1939303,-0.08140286,10.11071,-1.0,0.5267176,-2.80916,-0.1867477,-0.06224924,10.08438,-0.7099237,1.0,-1.29771,-17,1
0.5434838,-0.09097966,10.05804,-0.2824428,1.480916,-11.38931,0.557849,-0.03351882,10.12268,-0.8473283,1.267176,0.6870229,1.055843,0.4525041,10.08438,-0.4198473,1.145038,0.4656488,2.844312,0.02633622,10.23761,-0.9923664,1.748092,-11.69466,15.00446,1.850718,10.65899,-4.664122,2.717557,98.07633,-5.092467,-5.786786,9.646238,2.290076,-0.1603053,-87.7481,-13.39077,-3.318364,9.289502,0.6793893,3.763359,-28.74046,-0.01915361,0.7661445,10.12508,-0.2061069,2.122137,-10.67939,-0.248997,-0.05746084,10.05565,-1.083969,1.19084,-1.343511,-0.1819593,-0.2513912,10.1562,-0.832061,0.5954198,-1.221374,-0.3160346,0.2681506,10.20169,-0.870229,1.480916,-1.328244,-19,1
0.08619126,-0.01436521,10.10832,-0.351145,1.152672,1.259542,1.067814,-0.002394202,10.18015,-0.870229,1.312977,-3.458015,0.7230489,-0.05985504,10.1179,-0.5877862,1.221374,-0.8854962,5.683835,0.5746084,10.18733,-1.29771,1.603053,-6.465649,19.6127,-0.05267244,10.57519,-4.351145,6.473282,57.37405,-16.0627,-2.63841,9.320627,-0.4351145,-7.564886,-2.274809,-7.120356,-2.121263,9.624691,2.847328,2.80916,-19.32061,-0.04070143,0.009576807,10.12747,-0.7557252,1.618321,-8.427481,-0.1412579,-0.1149217,10.07001,-0.1221374,1.732824,-15.79389,-0.1795651,-0.08858546,10.13466,-0.6412213,0.4427481,-1.633588,-0.1963245,-0.02394202,10.13705,-0.5038168,1.221374,-1.374046,-15,1
0.1244985,0.09576806,10.10832,-0.04580153,1.351145,-4.778626,2.032677,0.1149217,10.14902,-0.8091603,0.8473283,-6.885496,16.64449,-0.8475474,10.19451,-5.030534,2.099237,9.954199,0.5530606,0.3974375,8.327033,-1.099237,3.564885,13.25954,-13.24472,1.505953,11.56639,-0.2519084,-0.9541985,18.83969,-4.436456,-0.1891419,10.36211,2.618321,2.549618,-20.18321,-0.1747767,-0.1412579,10.12508,-1.824428,-0.3816794,14.75572,0.1149217,0.04070143,10.14184,-1.854962,1.335878,7.740458,0.05746084,-0.009576807,10.14423,-1.29771,0.4885496,0.8549618,0.1244985,-0.06464344,10.07001,-0.870229,1.603053,-1.137405,-0.02633622,-0.1771709,10.05325,-0.6793893,0.9160305,-0.05343511,4,1
0.7517793,0.3926491,10.22803,-0.2748091,1.954198,-0.2366412,0.8882488,0.07422025,10.22803,-0.7251908,1.832061,-8.534351,19.29008,2.679112,10.79546,-3.984733,-0.02290076,41.64886,-6.528988,-6.01184,9.974244,-3.725191,-4.19084,22.27481,-13.80976,0.5027823,9.706094,2.656489,2.152672,-82.73283,-0.6153098,0.8379706,10.08677,-1.549618,0.5801527,10.17557,-0.5554548,-0.06224924,9.974244,-0.8091603,0.7633588,-1.977099,-0.1268927,-0.1675941,10.17057,-0.3053435,1.183206,-1.236641,-0.1723825,-0.05506664,10.08438,-0.6183206,1.358779,-1.435114,-0.1340753,-0.09576806,10.1586,-0.9694656,1.183206,-1.435114,-0.1364695,-0.04548983,10.16099,-0.4732824,1.053435,-1.114504,1,1
0.4884171,0.08858546,10.15141,-1.290076,1.526718,0.7938931,4.386178,-0.4716577,10.21606,0.1603053,2.320611,-20.87023,18.61731,1.745373,11.1067,-0.3435115,-2.625954,43.29771,-12.22,-1.781286,10.0748,-1.419847,5.885496,-6.19084,-11.71244,0.8523358,9.957485,1.061069,1.083969,-35.32061,0.01675941,0.1292869,10.19212,-0.2824428,1.419847,-7.076336,-0.4357447,-0.04070143,10.10593,-1.694656,1.0,3.21374,-0.1292869,-0.1460463,10.1586,-0.9923664,0.4198473,-0.9923664,-0.2442086,-0.02633622,10.19451,-0.5419847,1.236641,0.8625955,-0.01915361,-0.1005565,10.09874,-1.045802,0.4274809,2.557252,-0.2035071,-0.08619126,10.17296,-0.5114504,0.8778625,1.198473,3,1
0.3519476,0.004788404,10.22324,-0.4503817,1.022901,-2.358779,6.184223,0.04548983,10.19691,-1.725191,0.5725191,-12.34351,19.6127,1.024718,10.73799,-5.908397,-2.229008,48.39694,-19.6133,2.394202,8.983045,1.770992,0.7328244,-30.87786,-6.464345,-3.201048,9.907207,-1.740458,-0.6183206,63.41985,0.2154782,0.09816227,10.17536,-0.6793893,2.343511,-29.61069,-0.2154782,0.05267244,10.10114,-0.8625955,1.091603,-10.26718,-0.1628057,-0.225055,10.14663,-0.7709923,1.236641,-1.679389,-0.2035071,0.009576807,10.1179,-0.6946565,2.061069,-1.274809,-0.1771709,0.03830723,10.09635,-0.5725191,0.5725191,-1.473282,-0.1628057,-0.1460463,10.09156,-0.6946565,0.8396947,-1.229008,4,1
0.04070143,-0.06224924,10.09635,-0.5648855,1.320611,-0.129771,0.3782839,0.02873042,10.16817,0.04580153,0.08396947,-3.022901,7.252037,-0.878672,10.1179,-4.343512,-0.8473283,9.305344,4.702212,-0.272939,10.04846,1.709924,0.0610687,15.51908,-2.942474,-0.3974375,10.40999,0.2748091,1.801527,20.12977,-6.799533,1.764527,10.22324,-1.076336,6.129771,-2.206107,-3.0143,0.009576807,10.19212,-2.618321,0.6183206,-1.21374,-1.067814,0.2442086,10.10593,-0.9847328,0.1603053,-5.145038,0.05506664,-0.08858546,10.05086,-1.366412,0.3206107,-0.4961832,0.08858546,-0.06703765,10.07959,-0.4122138,1.969466,0.2900764,0.05027823,-0.01915361,10.08677,-0.5572519,0.832061,-1.358779,-1,1
0.02633622,0.2154782,10.21845,-0.7175572,0.6564885,-8.183207,3.021482,-0.3423708,10.05565,-1.40458,2.59542,-8.778625,11.12107,1.939303,10.46266,-1.732824,-0.5343512,19.31298,9.540894,-0.1125275,11.21923,3.923664,-6.198473,46.32824,-19.6133,1.812411,9.643845,-1.137405,-0.7251908,17.19084,-3.148375,-0.3375824,10.07241,-1.251908,0.9160305,19.58015,-0.09816227,0.08858546,10.08198,-0.5648855,0.6717557,-7.908397,-0.7469909,0.03830723,10.04128,-1.389313,1.038168,1.29771,-0.1292869,-0.1963245,10.1179,-0.6259542,1.244275,-1.244275,-0.1388637,0.03830723,10.13705,-0.5648855,1.244275,-10.50382,-0.1244985,-0.1819593,10.18493,-0.6412213,1.251908,-1.160305,5,1
0.01197101,0.04309563,10.15381,-1.267176,1.427481,-0.6946565,-0.6272808,-0.03591302,10.19691,-0.7022901,1.244275,1.251908,0.01915361,-0.004788404,10.0341,-1.099237,0.8778625,2.221374,0.3064578,-0.007182605,10.05804,-0.961832,1.381679,-5.122138,-0.2011129,-0.01915361,10.10353,-0.5725191,1.816794,-1.068702,0.6129156,-0.04070143,10.3645,-0.4656488,1.870229,-10.32824,19.6127,5.645528,11.2743,2.114504,-2.587786,36.41985,-5.822699,-3.155558,10.38605,-7.854962,-4.08397,-6.969466,-9.500193,-1.793257,9.581595,3.0,1.045802,-57.17557,-0.8331822,0.3423708,10.0748,0.610687,0.7938931,-11.36641,-0.4237737,0.007182605,10.02213,-0.5267176,1.427481,-5.51145,-37,1
0.4692635,-0.08619126,10.05086,0.01526718,0.6717557,-9.236641,1.924938,-0.272939,10.42675,-0.6335878,1.671756,-6.946565,9.203311,2.329558,10.21845,-1.770992,2.824427,20.58779,11.91115,-0.08619126,10.42914,-1.160305,-5.022901,38.90076,-19.6133,2.449268,10.56082,-5.068702,-6.969466,27.87023,-4.266468,-0.2202666,10.23521,-0.9312977,0.648855,22.56489,-0.4836287,0.3064578,10.13466,0.129771,0.8244275,-10.22138,-0.6847417,0.05746084,10.08677,-1.664122,0.8244275,3.29771,-0.1197101,-0.1843535,10.19212,-0.6717557,1.10687,-1.259542,-0.1939303,0.0,10.14423,-0.1374046,1.244275,-10.89313,-0.1221043,-0.1053449,10.14663,-0.5496183,1.381679,-1.541985,4,1
-0.1556231,-0.004788404,10.05325,-0.4274809,1.129771,9.580153,1.197101,0.009576807,10.12029,-0.5648855,1.21374,-8.175572,0.902614,0.1532289,10.17057,-0.1450382,1.755725,-8.610687,3.177106,0.1604115,10.31422,-1.259542,0.5038168,-7.320611,19.6127,2.475605,11.50174,-13.06107,-0.7938931,62.8168,-19.6133,6.397307,8.662222,3.068702,5.603054,-44.90077,-4.288015,-2.703054,9.921572,-2.29771,0.1221374,25.33588,-0.4596867,0.225055,10.08677,-0.5572519,1.351145,-27.64122,-0.2873042,-0.1125275,10.1179,-1.244275,0.9923664,-1.977099,-0.1987187,0.2513912,10.09156,-0.6717557,1.061069,-1.038168,-0.1077391,-0.06703765,10.10832,-0.3740458,1.343511,-1.145038,-15,1
0.7517793,0.1173159,10.18733,-1.137405,0.8549618,-3.351145,7.299921,0.225055,10.5297,-0.8625955,-0.2748091,-13.25954,19.6127,-0.7038953,10.87686,0.2977099,6.938931,31.13741,-19.6133,3.694253,7.917625,-2.671756,-3.351145,5.465649,-5.125986,-2.059013,9.962274,-2.458015,-2.076336,72.48092,-0.2801216,-0.07422025,10.19691,-0.2748091,1.580153,-23.22901,-0.4405331,0.02633622,10.1179,-0.6335878,0.9770992,-9.083969,-0.1292869,-0.1268927,10.12029,-0.6946565,1.80916,-1.244275,-0.1723825,-0.03591302,10.10353,-0.7175572,1.732824,-1.458015,-0.1651999,0.05985504,10.13226,-0.6793893,0.4885496,-1.282443,-0.1699883,-0.1268927,10.13945,-0.5954198,1.091603,-1.061069,5,1
-0.06703765,-0.04788403,10.18972,-0.9007633,1.152672,8.648855,0.4189853,0.002394202,10.10353,-0.1984733,1.145038,2.755725,0.4692635,-0.1628057,10.17057,-0.5954198,1.503817,-6.748092,1.61848,0.1364695,10.1586,-0.9541985,0.8778625,-4.312977,6.186617,1.546654,10.41717,-1.358779,2.664122,6.40458,12.98615,0.770933,10.06762,1.480916,-2.587786,32.0687,-10.1562,-1.632845,9.160215,-3.587786,8.366412,8.832061,-8.724471,0.3303998,9.991004,-1.801527,1.267176,16.1145,0.2035071,-0.1029507,10.17775,0.6946565,1.419847,-22.90076,-0.4764462,0.1364695,10.22085,-2.229008,1.022901,5.816794,-0.06943185,-0.1987187,10.13226,-0.832061,1.114504,-2.824427,-19,1
-0.344765,-0.004788404,10.1179,-0.6946565,1.427481,-3.0,-0.3663129,0.05027823,10.10832,-0.5801527,1.045802,-2.480916,0.06943185,0.09337386,10.09874,-0.832061,0.9160305,-2.007634,0.2202666,-0.04548983,10.16817,-0.3358779,1.183206,0.8778625,1.630451,0.8403648,10.21127,-0.129771,1.587786,2.435115,2.183512,0.1484405,10.16339,-1.022901,0.7251908,-8.572519,18.47606,3.74932,10.59913,-0.5419847,-1.984733,35.32061,3.574543,-3.660734,10.26634,-0.2977099,-7.694656,-5.351145,-19.6133,0.6751649,9.433155,-1.824428,3.267176,-47.38931,-0.2298434,0.6440403,10.05325,-0.5572519,1.198473,7.931298,-0.2011129,-0.007182605,10.06522,-0.5267176,0.8549618,-1.755725,-37,1
0.4477157,0.1484405,10.12508,-1.091603,1.969466,1.137405,3.706224,-0.2035071,10.26634,-0.8931297,1.618321,-8.244275,17.1784,1.790863,10.70448,0.1145038,-0.5343512,29.86259,-9.964667,-2.341529,11.00136,-6.29771,2.282443,16.51908,-14.54956,1.063026,9.653421,0.1450382,2.114504,-40.80153,-0.4740519,0.4070143,10.08438,0.1984733,1.503817,-6.793893,-0.4572925,0.01197101,10.12987,-1.847328,0.8931297,5.122138,-0.1532289,-0.1244985,10.19691,-0.9160305,0.4580153,-0.9007633,-0.1484405,-0.04070143,10.06522,-0.4580153,1.167939,0.2748091,-0.08619126,-0.04788403,10.13705,-0.8015267,0.4961832,4.045802,-0.1221043,-0.08379706,10.14663,-0.4732824,0.9312977,0.03816794,2,1
-0.2059013,0.01915361,10.09874,-0.648855,2.496183,-1.335878,0.6967127,-0.009576807,10.08438,-0.3282443,1.29771,-9.946565,14.58069,2.765303,10.75475,-0.3435115,0.6793893,28.81679,0.2537854,-7.098808,10.80503,-1.160305,2.160305,21.61069,-18.18157,1.108515,9.691729,1.572519,0.4656488,-89.96947,-1.271321,1.388637,10.06762,-0.9160305,0.3053435,24.96947,-0.8164227,-0.04788403,10.05086,-0.389313,0.7099237,-3.175573,-0.1412579,-0.2202666,10.11071,-0.4198473,0.6030535,-1.267176,-0.1508347,-0.1436521,10.1562,-0.4503817,1.045802,-1.274809,-0.1532289,-0.06464344,10.12268,-0.8549618,1.290076,-1.259542,-0.1292869,-0.02154782,10.07001,-0.870229,1.068702,-1.114504,0,1
0.1819593,0.09097966,10.0772,0.3664122,0.961832,-4.694656,2.377442,0.1747767,10.21127,-0.1755725,1.267176,-8.572519,15.28219,-0.9624691,10.88644,-5.091603,-1.0,23.61069,-3.519476,0.5506664,11.1474,4.053435,4.70229,21.82443,-12.85447,1.47004,10.1993,-1.259542,-1.305344,21.35114,-2.906561,-1.012747,9.655815,-4.557252,-0.3282443,-17.37405,-0.2202666,-0.08858546,10.03649,-1.175573,0.5572519,14.8626,0.08140286,-0.02873042,10.02692,-1.038168,1.21374,5.992366,0.1197101,-0.08619126,10.1179,-1.167939,0.259542,0.2748091,0.09097966,-0.01915361,10.10353,-1.015267,2.022901,-1.419847,0.03351882,-0.1053449,10.08917,-0.4656488,1.290076,-0.6870229,5,1
0.2418144,-0.1053449,10.07241,0.1145038,1.977099,-2.274809,0.8978256,-0.08379706,10.14184,-1.435114,0.870229,1.320611,10.84813,0.9744401,10.1993,4.221374,-0.04580153,-9.374045,6.708553,-2.746149,10.01016,-0.259542,-2.312977,14.45038,-11.07079,3.124433,9.648633,-2.0,1.038168,18.31298,-7.302315,1.084573,9.902418,9.061069,2.671756,-23.37405,-0.3711013,-0.1556231,10.09156,1.381679,1.480916,0.7328244,0.1077391,-0.06224924,10.06283,-2.236641,1.030534,11.0687,0.05985504,-0.03591302,10.14184,-0.7175572,1.145038,5.08397,0.03830723,-0.007182605,10.10353,-0.9847328,1.137405,-0.9770992,0.04070143,-0.002394202,10.12987,-0.7251908,0.8244275,0.3664122,1,1
-0.03351882,-0.02873042,10.10353,-1.328244,1.89313,-1.045802,0.4165911,-0.004788404,10.1155,-0.870229,1.557252,-0.480916,4.534618,-0.4548983,10.14423,0.04580153,1.419847,-11.29008,5.051765,-0.04309563,10.88404,-0.9236641,-5.251908,-40.45802,-1.082179,-0.3830723,10.55604,1.847328,-9.076336,4.778626,-5.839458,0.8379706,9.320627,-0.7099237,-3.59542,19.38168,-3.440468,0.2992752,10.14184,-0.007633588,0.519084,-3.671756,-0.4979939,-0.2274492,10.11071,-0.4580153,0.6717557,-5.282443,0.06224924,-0.02154782,10.09395,-0.9083969,0.5267176,3.10687,0.002394202,-0.3567361,10.19451,2.40458,3.19084,-14.24428,0.04548983,0.02154782,10.01255,-0.3740458,3.091603,-1.29771,-3,1
-1.872266,-0.3615245,10.42436,1.335878,-0.480916,12.92366,2.221819,0.1508347,10.12987,-1.206107,1.694656,-9.862596,19.6127,2.185906,10.84095,-2.038168,0.1374046,60.76336,-19.6133,0.4333505,9.291897,-0.1984733,-2.946565,-58.24428,-7.015011,-3.359065,9.995792,-0.2366412,1.129771,11.25191,-0.4333505,0.9409212,10.06044,-0.7328244,1.534351,-19.57252,-0.3902549,-0.1292869,10.01495,-1.007634,0.870229,-1.549618,-0.2011129,0.2633622,10.11311,-0.8625955,1.21374,-0.8473283,-0.1604115,-0.02633622,10.09395,0.2366412,1.274809,-0.961832,-0.2011129,-0.07422025,10.09156,-0.6717557,0.8625955,-1.335878,-0.1747767,-0.04548983,10.09635,-0.9541985,0.9312977,-1.389313,4,1
-0.260968,0.06943185,10.10832,-1.282443,0.778626,10.71756,0.03112462,0.02633622,10.17296,-1.007634,1.045802,-7.206107,-0.1987187,-0.01675941,10.04128,-0.8625955,1.778626,-1.030534,3.768473,-0.03830723,10.1993,-1.229008,1.572519,-13.61069,19.6127,4.283227,10.63026,-2.328244,1.40458,41.42748,-11.80102,-2.8491,9.536105,3.671756,3.221374,-81.51908,-12.49773,-5.774815,9.222465,1.122137,-0.4427481,21.50382,-1.165976,0.7757214,9.919178,-0.610687,0.8549618,-0.8015267,-0.2202666,0.03351882,10.1993,-0.5954198,0.6717557,-1.114504,-0.1604115,-0.1819593,10.1179,-0.7022901,1.122137,-1.091603,-0.1388637,-0.1460463,10.13466,-0.4961832,1.450382,-1.755725,-15,1
-0.3351882,-0.002394202,10.14663,-0.7328244,1.152672,-1.503817,-0.1005565,-0.1292869,10.13945,-0.4885496,0.9465649,-2.534351,0.01436521,-0.05746084,10.1562,-0.778626,0.9389313,-3.824427,0.5195417,-0.05267244,10.12508,-1.015267,1.068702,1.198473,-0.02154782,0.02394202,10.13466,-0.5648855,1.282443,4.572519,3.126827,-0.08379706,10.24958,-0.2748091,1.687023,-13.17557,19.6127,-3.864242,10.8601,-1.923664,0.1221374,105.397,-19.6133,4.874595,9.059659,-3.885496,3.839695,-31.64122,-3.55539,-1.319205,10.0317,0.02290076,0.3969466,23.0687,0.06703765,-0.1292869,10.22564,-0.4274809,1.335878,-6.38168,-0.4860229,-0.004788404,10.09156,-1.053435,1.068702,-0.3358779,-37,1
-0.04309563,-0.05027823,10.13226,-0.2900764,1.145038,-0.2061069,0.1771709,0.0,10.01974,-0.648855,0.7633588,-2.160305,4.299986,-0.2753332,10.13466,-1.900763,2.10687,0.7022901,8.049306,-0.2035071,9.636662,-2.534351,-4.251908,34.67939,0.01436521,-0.01436521,9.665392,4.137404,-5.847328,4.664122,-5.228937,-0.3256114,9.969456,3.641221,1.358779,15.43511,-4.194642,0.2753332,9.952697,-0.1679389,3.076336,-15.49618,-1.537078,-0.05267244,10.16578,-0.5801527,0.9541985,-10.34351,-0.3567361,-0.2633622,10.08917,-1.389313,0.3969466,-4.625954,0.1125275,-0.1197101,10.09395,-0.5496183,1.526718,-1.007634,0.04070143,-0.01436521,10.04607,-0.7480916,1.137405,-0.519084,-4,1
1.055843,0.4525041,10.08438,-0.4198473,1.145038,0.4656488,2.844312,0.02633622,10.23761,-0.9923664,1.748092,-11.69466,15.00446,1.850718,10.65899,-4.664122,2.717557,98.07633,-5.092467,-5.786786,9.646238,2.290076,-0.1603053,-87.7481,-13.39077,-3.318364,9.289502,0.6793893,3.763359,-28.74046,-0.01915361,0.7661445,10.12508,-0.2061069,2.122137,-10.67939,-0.248997,-0.05746084,10.05565,-1.083969,1.19084,-1.343511,-0.1819593,-0.2513912,10.1562,-0.832061,0.5954198,-1.221374,-0.3160346,0.2681506,10.20169,-0.870229,1.480916,-1.328244,-0.1197101,-0.1747767,10.15141,-0.9694656,0.3664122,-1.19084,-0.1963245,-0.04788403,10.12747,-0.5114504,1.312977,-1.244275,1,1
0.4979939,0.08858546,10.22085,-0.8778625,1.954198,3.427481,-3.143587,0.3974375,9.880871,-3.129771,1.358779,94.48855,10.58477,1.553837,10.35971,-0.2442748,0.2748091,16.66412,2.72939,-1.711854,10.00297,0.3053435,-0.7251908,22.41221,-14.06115,1.723825,9.452309,-3.671756,0.610687,-2.847328,-3.754108,-0.5051765,10.06762,-2.236641,1.129771,15.20611,0.1173159,-0.1628057,10.18493,0.648855,2.061069,-4.885496,-0.1436521,0.04070143,10.18972,-0.6412213,1.480916,-0.9923664,-0.06703765,-0.237026,10.08677,-0.4122138,1.465649,-5.671756,-0.2082956,-0.05027823,10.12029,-0.5038168,1.183206,-0.5725191,-0.1412579,0.06464344,10.19451,-1.465649,0.2213741,-1.244275,3,1
0.2322376,-0.09097966,10.12029,-0.8549618,1.717557,-6.610687,1.271321,-0.03112462,10.20169,-1.183206,0.4580153,-4.839694,5.686229,1.391031,10.46027,-0.7251908,1.389313,1.877863,13.01488,0.260968,10.53449,-4.022901,-0.8931297,31.29771,-8.207323,-1.292869,10.78588,-3.282443,3.145038,6.061069,-11.67652,-0.2082956,9.928755,-1.343511,0.8473283,9.748092,0.2944868,-0.3112462,10.17775,1.145038,1.282443,-25.20611,-1.163582,0.5027823,10.06044,-1.992366,1.030534,-0.6183206,-0.09337386,-0.1651999,10.11311,-1.145038,1.175573,-2.59542,-0.1388637,-0.08140286,10.12987,-0.09923664,1.015267,-6.725191,-0.1268927,-0.01197101,10.08198,-0.8931297,1.129771,-2.541985,0,1
-0.1747767,-0.05506664,10.12268,-1.251908,1.099237,-1.19084,-0.1963245,0.004788404,10.08198,-0.8549618,1.534351,-1.328244,-0.2106898,-0.06224924,10.14184,-1.282443,2.274809,-1.335878,7.836222,0.3303998,10.66856,-0.1450382,1.175573,4.358778,12.78983,-1.922544,10.63026,-0.8396947,-4.51145,-30.76336,-19.6133,3.236961,9.648633,-2.160305,1.908397,-43.35115,-1.355118,-0.6224924,10.24239,-0.2977099,0.740458,10.54199,-0.3663129,0.03830723,10.04846,-0.9541985,0.2137404,10.01527,-0.2202666,-0.03830723,10.12508,-0.7480916,1.290076,-1.358779,-0.1628057,-0.02633622,10.10832,-0.5343512,1.015267,-1.389313,-0.1628057,-0.01915361,10.07001,-0.8549618,1.061069,-1.320611,-15,1
0.4692635,-0.1628057,10.17057,-0.5954198,1.503817,-6.748092,1.61848,0.1364695,10.1586,-0.9541985,0.8778625,-4.312977,6.186617,1.546654,10.41717,-1.358779,2.664122,6.40458,12.98615,0.770933,10.06762,1.480916,-2.587786,32.0687,-10.1562,-1.632845,9.160215,-3.587786,8.366412,8.832061,-8.724471,0.3303998,9.991004,-1.801527,1.267176,16.1145,0.2035071,-0.1029507,10.17775,0.6946565,1.419847,-22.90076,-0.4764462,0.1364695,10.22085,-2.229008,1.022901,5.816794,-0.06943185,-0.1987187,10.13226,-0.832061,1.114504,-2.824427,-0.2082956,-0.06464344,10.1179,-0.3282443,0.9465649,-7.564886,-0.06464344,-0.01915361,10.06522,-0.8167939,1.076336,-1.442748,1,1
0.545878,0.1891419,10.19691,-1.21374,2.251908,4.725191,2.72939,-0.4932055,10.21845,-0.8091603,0.1374046,14.46565,9.588778,0.7086837,10.20169,-0.832061,0.832061,3.206107,3.821146,-1.666364,9.97185,-1.70229,-9.740458,39.00763,-14.96616,2.181118,9.976639,-2.854962,3.923664,-14.16031,-4.675876,0.05027823,10.04607,-2.641221,0.8244275,25.70992,0.09337386,-0.2681506,10.14184,0.8167939,1.877863,-9.221375,-0.2466028,0.09576806,10.16578,-0.7328244,1.679389,-1.114504,-0.1795651,-0.06703765,10.12987,-0.7175572,1.450382,-1.70229,-0.06943185,-0.1436521,10.07241,-0.5496183,1.381679,-0.05343511,-0.1077391,0.05506664,10.09635,-1.19084,0.2137404,-1.091603,2,1
0.1699883,0.2322376,10.14902,-1.167939,1.587786,4.694656,2.530671,0.1556231,10.24,-0.8167939,1.748092,-8.099236,17.21671,2.087744,10.71166,-1.0,-2.229008,36.94656,1.381454,-3.845088,9.385271,-4.763359,-4.877862,-70.40458,-16.95813,-1.54426,9.466674,0.5114504,1.091603,-40.0,-0.6871359,0.926556,10.13466,-1.068702,1.694656,-3.687023,-0.1508347,-0.07900865,10.02692,-1.030534,0.7709923,-1.206107,-0.09337386,-0.1795651,10.07959,-1.030534,0.7709923,-0.9770992,-0.2178724,0.2418144,10.15141,-0.5267176,1.21374,-1.435114,-0.1436521,-0.1843535,10.11071,-0.9236641,0.5496183,-1.282443,-0.2011129,-0.01436521,10.14184,-0.5877862,1.312977,-1.030534,0,1
-0.03351882,-0.07422025,10.05325,-0.1145038,1.145038,-0.04580153,0.1197101,-0.01675941,10.14184,-0.351145,0.5801527,-2.473282,3.198653,-0.2801216,10.14184,-0.9312977,1.076336,1.175573,8.896853,-0.7086837,9.991004,-5.274809,-5.877862,34.60305,0.06224924,0.03351882,11.05882,-0.2137404,6.244275,-7.442748,-5.125986,-0.1484405,9.955091,-0.4732824,-0.01526718,11.80916,-3.754108,0.3639187,10.05086,-0.2519084,1.091603,-17.58779,-1.51553,0.09816227,9.976639,-0.1755725,1.396947,-12.27481,-0.4285621,-0.1364695,10.0772,-0.8931297,0.5572519,-2.51145,0.1005565,-0.1388637,10.13945,-0.6641222,1.648855,-0.9312977,0.03112462,0.01915361,10.07241,-0.9007633,0.832061,-0.7175572,-5,1
-0.2178724,-0.06943185,10.05804,-0.4427481,0.9465649,10.36641,0.5746084,0.02394202,10.16099,-0.259542,0.9083969,3.717557,0.2322376,-0.09097966,10.12029,-0.8549618,1.717557,-6.610687,1.271321,-0.03112462,10.20169,-1.183206,0.4580153,-4.839694,5.686229,1.391031,10.46027,-0.7251908,1.389313,1.877863,13.01488,0.260968,10.53449,-4.022901,-0.8931297,31.29771,-8.207323,-1.292869,10.78588,-3.282443,3.145038,6.061069,-11.67652,-0.2082956,9.928755,-1.343511,0.8473283,9.748092,0.2944868,-0.3112462,10.17775,1.145038,1.282443,-25.20611,-1.163582,0.5027823,10.06044,-1.992366,1.030534,-0.6183206,-0.09337386,-0.1651999,10.11311,-1.145038,1.175573,-2.59542,-20,1
0.902614,0.1532289,10.17057,-0.1450382,1.755725,-8.610687,3.177106,0.1604115,10.31422,-1.259542,0.5038168,-7.320611,19.6127,2.475605,11.50174,-13.06107,-0.7938931,62.8168,-19.6133,6.397307,8.662222,3.068702,5.603054,-44.90077,-4.288015,-2.703054,9.921572,-2.29771,0.1221374,25.33588,-0.4596867,0.225055,10.08677,-0.5572519,1.351145,-27.64122,-0.2873042,-0.1125275,10.1179,-1.244275,0.9923664,-1.977099,-0.1987187,0.2513912,10.09156,-0.6717557,1.061069,-1.038168,-0.1077391,-0.06703765,10.10832,-0.3740458,1.343511,-1.145038,-0.225055,-0.02633622,10.1562,-0.8091603,1.007634,-1.450382,-0.1460463,-0.03351882,10.14663,-0.8778625,1.19084,-1.51145,5,1
0.2513912,0.1628057,10.17296,0.6793893,2.442748,-1.175573,0.7254431,-0.1029507,10.11071,-0.8091603,0.7328244,0.08396947,8.482656,1.063026,10.07959,4.938931,1.755725,-12.80153,7.659051,-2.492364,10.23042,-4.648855,9.648855,26.61832,-9.531317,2.219425,9.41879,6.129771,3.320611,10.20611,-8.698134,0.7469909,10.19212,8.145039,2.656489,-23.52672,-0.581791,-0.3591303,10.13705,0.9236641,1.366412,-5.396946,0.1173159,0.004788404,10.06283,-2.625954,1.183206,9.992367,0.05267244,-0.08140286,10.1155,-0.6259542,0.9465649,7.137404,0.01436521,0.01436521,10.0748,-1.557252,0.6870229,-0.5954198,0.07422025,-0.01675941,10.14184,-0.389313,0.4732824,-2.015267,0,1
-0.007182605,0.05506664,10.08917,-0.9694656,1.732824,1.19084,0.7302315,0.1316811,10.15381,-0.6793893,1.694656,-2.641221,6.040571,-0.3160346,10.22324,-0.9847328,0.4122138,-15.21374,6.210559,-0.6607997,10.04607,0.648855,-3.022901,-42.09924,-2.090138,-0.8283938,11.77468,-1.740458,-0.5267176,5.664122,-6.174646,0.8020576,10.21366,-0.6412213,-4.068702,20.54199,-2.873042,0.3543419,9.962274,0.3740458,0.9389313,-12.29771,-0.4357447,-0.213084,10.06044,-0.8244275,0.3587786,-0.4122138,0.04070143,0.002394202,10.06522,-0.740458,0.5038168,3.015267,-0.248997,0.1173159,10.21127,-1.145038,4.793893,2.412214,0.07422025,-0.1340753,10.12268,0.05343511,3.129771,-1.183206,-2,1
-0.2346318,0.2059013,10.18015,-1.251908,0.7480916,0.6870229,-0.2442086,0.03591302,10.12987,-0.7709923,1.045802,-2.114504,0.6272808,-0.03591302,10.16099,0.03053435,1.473282,-5.458015,0.902614,-0.02394202,10.14184,-0.7328244,0.6717557,2.442748,1.015141,0.1747767,10.1155,-0.8244275,1.381679,-3.137405,4.72376,-0.09816227,10.35971,-0.6259542,1.656489,-11.0,19.6127,-0.1436521,10.78349,0.7099237,1.671756,52.14504,-19.6133,-2.281674,10.19691,3.022901,-2.40458,-55.77099,-8.11395,-3.711013,9.907207,0.07633588,-0.1984733,42.51909,-0.8379706,0.3687071,9.988609,-0.519084,2.412214,-30.13741,0.2466028,0.1005565,10.10353,-0.7328244,1.236641,-4.465649,-37,1
0.1963245,0.03112462,10.10353,-0.259542,1.832061,-4.793893,1.328782,-0.05985504,10.09395,-1.625954,1.183206,-1.21374,13.41471,0.8858546,10.18972,2.022901,-2.29771,-4.137404,6.141128,-2.41575,9.07163,-0.7938931,-5.015267,13.66412,-12.11945,2.995146,10.5297,-2.51145,-0.1603053,18.19084,-6.263232,0.4429273,9.804255,5.587786,2.603053,-23.80153,-0.3854665,-0.09576806,10.12508,-0.9541985,0.389313,8.748092,0.002394202,-0.002394202,10.17296,-1.977099,0.7862596,15.12977,0.1101333,-0.04309563,10.09395,-1.519084,0.8854962,3.732824,0.06943185,-0.02394202,10.09635,-0.8473283,1.221374,-1.48855,0.07900865,-0.06943185,10.09395,-0.7557252,0.7938931,2.450382,2,1
0.56982,-0.009576807,10.24239,-0.6412213,1.908397,5.419847,4.788404,-0.260968,10.32619,0.259542,2.030534,-25.59542,17.46091,1.161188,11.19289,1.732824,-3.740458,68.44275,-16.42183,1.244985,9.540894,-3.862595,1.633588,-20.09924,-7.402872,-0.07422025,9.775525,-0.2519084,3.076336,-14.24428,-0.1197101,0.1268927,10.13226,-0.9083969,0.9083969,-1.160305,-0.521936,-0.2178724,10.15141,-1.51145,0.8473283,-0.8854962,-0.3280056,-0.07182605,10.10114,-0.9541985,0.9923664,-0.1068702,-0.1556231,-0.06464344,10.1562,-0.5343512,0.7328244,3.40458,-0.1292869,-0.09337386,10.18015,-1.183206,0.7175572,1.328244,-0.3303998,-0.1149217,10.10593,-0.6946565,0.4885496,3.358779,5,1
-0.3184288,0.1077391,10.12268,-1.21374,1.053435,7.274809,0.1101333,-0.2202666,10.12508,-0.6870229,1.534351,-5.801527,0.3998317,0.07422025,10.15141,-0.5114504,1.48855,-2.793893,2.269703,-0.07900865,10.21127,-1.19084,0.9312977,-17.67939,19.6127,4.537012,10.83616,0.3664122,0.3816794,18.19084,-11.8106,-1.96564,10.72842,3.541985,-5.229008,-111.4885,-12.83532,-1.759738,9.526528,-0.007633588,1.259542,8.022901,-1.805228,1.288081,10.01974,-0.2290076,0.6259542,12.30534,-0.1843535,-0.1268927,10.09156,-0.610687,0.5725191,-1.076336,-0.2059013,-0.1987187,10.14184,-0.7557252,0.8854962,-0.8167939,-0.08379706,-0.08619126,10.14663,-0.6946565,1.458015,-1.862595,-16,1
-0.248997,-0.07900865,10.16817,-0.832061,1.061069,-1.198473,0.5434838,0.05267244,10.08438,-1.290076,1.007634,0.1908397,-0.1891419,0.004788404,10.07959,-0.7633588,1.969466,-0.2366412,0.806846,-0.09337386,10.14184,-1.091603,1.427481,3.114504,19.6127,5.576096,10.90559,-5.480916,-0.9312977,64.40458,-17.24065,-0.07182605,9.461885,1.076336,-6.206107,-95.80153,-7.81228,-3.950433,9.607931,-1.801527,0.7633588,44.9542,-0.6105214,0.9097966,10.01734,-0.4045802,1.687023,-5.641222,-0.5099649,0.1005565,10.13466,-0.5725191,1.038168,-0.02290076,-0.1316811,-0.3232172,10.14902,-0.6793893,1.022901,-0.9694656,-0.07900865,-0.04070143,10.17775,-0.961832,1.320611,-1.267176,-20,1
-0.1699883,-0.05746084,10.09874,-1.083969,2.717557,5.923664,1.936909,-0.2442086,10.27352,-1.244275,0.870229,2.961832,7.304709,0.866701,10.70448,0.2213741,2.587786,-14.54962,8.109161,-1.343147,10.62547,1.221374,-1.954198,43.61832,-11.66455,-0.4285621,10.54885,-3.503817,-7.557252,-35.61069,-8.968679,1.642422,9.880871,-3.251908,0.6717557,30.8855,-0.1604115,-0.2035071,10.17296,0.832061,0.7709923,-8.297709,-0.2920926,0.1723825,10.13226,-0.7557252,1.717557,-5.366412,-0.1173159,-0.07661445,10.14663,-0.7938931,1.335878,-1.564886,-0.1795651,-0.08619126,10.12747,-0.7022901,1.374046,-1.053435,-0.2298434,0.04788403,10.11071,-0.778626,0.4427481,-0.1450382,0,1
0.2920926,0.02154782,10.04846,-0.9312977,1.251908,-0.4503817,3.890578,0.05985504,10.20888,-1.10687,0.1221374,-11.27481,19.6127,0.8978256,10.65659,-1.80916,-0.4732824,56.35878,-11.83215,-1.587356,9.737218,1.435114,4.40458,-74.0,-11.02769,-3.550601,9.801862,2.061069,0.3206107,11.9084,0.6895301,0.6392518,10.18015,-0.5648855,2.419847,-29.90076,-0.1197101,-0.007182605,10.14663,-0.7328244,0.7633588,-1.099237,-0.1699883,-0.272939,10.12268,-0.2977099,0.9770992,-0.8549618,-0.1987187,0.1460463,10.06283,-0.9694656,1.717557,-1.358779,-0.1819593,-0.09816227,10.0772,-0.9160305,0.4885496,-1.198473,-0.1460463,-0.06703765,10.15381,-0.3587786,1.160305,-0.9694656,2,1
0.3998317,-0.06703765,10.14184,-0.9160305,1.320611,-5.427481,1.872266,-0.06703765,10.25676,-0.9694656,0.6641222,-7.770992,7.943961,1.668759,10.51055,-0.1450382,-0.6030535,14.52672,13.84327,0.6775591,10.3214,-4.38168,-4.801527,36.39695,-19.41458,2.772485,9.368511,-4.648855,5.526718,35.9771,-5.056554,-0.3471592,9.921572,-1.992366,0.5419847,25.70229,-0.1915361,0.06464344,9.993398,0.4351145,0.4961832,-15.12214,-0.7326257,0.05027823,10.09395,-1.763359,0.8091603,3.526718,-0.1101333,-0.2298434,10.09395,-0.4427481,1.091603,-2.267176,-0.1699883,-0.03351882,10.09874,-0.1832061,0.8625955,-8.610687,-0.1268927,-0.06943185,10.16099,-0.7099237,1.198473,-1.229008,3,1
-0.1484405,-0.06943185,10.11071,-1.083969,1.175573,-1.091603,-0.1963245,-0.02394202,10.06283,-0.740458,1.625954,-1.0,-0.1915361,-0.06224924,10.1562,-0.610687,1.977099,-1.152672,5.12838,0.2106898,10.25916,-1.557252,1.984733,15.23664,14.50886,0.07900865,10.15381,0.3435115,3.870229,-46.67176,-17.31247,2.37026,9.691729,-3.458015,-2.946565,-7.259542,-3.361459,-2.578555,9.988609,0.9236641,1.473282,16.06107,-0.1340753,-0.2106898,10.17057,-0.6717557,0.9312977,-1.083969,-0.260968,-0.002394202,10.10114,-0.7251908,1.40458,1.114504,-0.1843535,-0.03830723,10.13705,-0.5572519,0.7099237,-1.312977,-0.1460463,-0.007182605,10.13466,-0.2900764,0.9770992,-1.335878,-17,1
-0.4405331,-0.1675941,10.06762,-0.9465649,1.068702,1.816794,0.5554548,-0.02394202,10.27112,-1.129771,1.381679,-2.29771,-0.2322376,-0.06943185,10.12268,-0.6641222,1.862595,-1.061069,0.5674258,0.04788403,10.14184,-0.2366412,1.21374,-4.557252,13.21121,2.590526,10.46745,0.7022901,2.503817,-6.48855,0.2944868,-3.969586,10.31183,-6.045802,-4.877862,-1.816794,-15.75864,4.477157,9.780313,0.351145,0.1526718,-53.44275,-1.628057,-0.2513912,10.04607,0.5267176,0.6412213,5.412214,-0.4046201,0.002394202,10.18015,0.09923664,0.7175572,-2.29771,-0.02154782,-0.1101333,10.18733,-0.2748091,0.5572519,-0.9770992,-0.1388637,-0.007182605,10.12508,0.4045802,0.7709923,-1.587786,-19,1
-0.1699883,-0.05267244,10.13945,-0.832061,1.19084,-1.305344,-0.1508347,-0.04788403,10.1586,-0.5114504,1.465649,-1.015267,-0.1963245,-0.05506664,10.20409,-0.8854962,2.167939,-1.259542,5.959168,0.03591302,10.57758,-0.8091603,0.351145,11.62596,13.82412,-0.06703765,10.82179,0.6564885,2.709924,-40.37405,-17.95891,3.172317,9.44752,-3.206107,0.09160305,-37.74046,-2.451663,-1.359907,10.03649,0.2290076,0.1908397,18.06107,-0.1747767,-0.04788403,10.08677,-0.7022901,0.6717557,5.389313,-0.2513912,-0.01915361,10.08917,-0.6641222,1.48855,-0.3816794,-0.1867477,-0.07422025,10.1586,-0.389313,0.9541985,-1.396947,-0.1580173,0.0,10.06522,-0.5725191,1.053435,-1.099237,-16,1
0.4022259,-0.05985504,10.16578,-1.419847,1.496183,-7.320611,2.013524,-0.2418144,10.23521,-0.9770992,0.6030535,-6.755725,7.570466,1.714248,10.38844,-1.923664,0.0,7.671756,13.98693,0.2657564,10.44351,1.10687,-0.6870229,30.49618,-16.9318,2.195483,9.287108,-5.335878,-0.2061069,15.23664,-6.540959,-0.02633622,10.14184,-0.9541985,1.076336,21.32061,0.009576807,0.06943185,10.26394,-0.08396947,0.778626,-16.83969,-0.5243302,0.1364695,10.1586,-1.839695,0.7938931,6.206107,-0.09576806,-0.213084,10.10353,-0.5954198,1.045802,-2.656489,-0.1795651,-0.01915361,10.08438,-0.1450382,0.8167939,-7.40458,-0.1460463,-0.09097966,10.12987,-0.7557252,1.091603,-1.366412,2,1
1.015141,0.1747767,10.1155,-0.8244275,1.381679,-3.137405,4.72376,-0.09816227,10.35971,-0.6259542,1.656489,-11.0,19.6127,-0.1436521,10.78349,0.7099237,1.671756,52.14504,-19.6133,-2.281674,10.19691,3.022901,-2.40458,-55.77099,-8.11395,-3.711013,9.907207,0.07633588,-0.1984733,42.51909,-0.8379706,0.3687071,9.988609,-0.519084,2.412214,-30.13741,0.2466028,0.1005565,10.10353,-0.7328244,1.236641,-4.465649,-0.1771709,-0.2274492,10.13705,-0.7862596,1.206107,-1.366412,-0.213084,0.02873042,10.09874,-0.8549618,1.908397,-1.099237,-0.1795651,-0.01675941,10.06044,-0.5954198,0.5419847,-1.473282,-0.1532289,-0.1053449,10.12508,-0.7862596,0.9236641,-0.9694656,3,1
-0.05746084,0.03112462,10.10353,-1.160305,2.633588,8.244275,2.195483,-0.3184288,10.12268,-0.4732824,0.7022901,9.541985,9.701305,0.9552865,10.23042,-0.5114504,-1.725191,-4.091603,5.518635,-1.391031,10.32859,-2.282443,-3.465649,40.51145,-15.22233,2.351106,11.50174,1.938931,5.374046,-28.53435,-6.210559,0.8738836,9.938332,-3.618321,0.6641222,31.64886,0.05506664,-0.2705448,10.1562,0.5343512,1.381679,-8.603053,-0.248997,0.1819593,10.09635,-0.778626,1.633588,-2.480916,-0.1412579,-0.09816227,10.06762,-1.145038,1.328244,-1.351145,-0.08140286,-0.1580173,10.16339,-0.9083969,1.290076,-0.2366412,-0.1268927,0.03351882,10.16099,-0.5725191,0.5114504,-1.160305,1,1
-0.2442086,-0.2418144,10.20648,-0.5038168,1.78626,-6.152672,-0.09576806,0.2059013,10.09635,-0.2900764,1.022901,2.351145,0.2920926,-0.2346318,10.14184,-0.2671756,1.083969,4.984733,-0.1747767,-0.08619126,10.1155,-0.1755725,1.793893,-0.9541985,0.3998317,-0.06703765,10.14184,-0.9160305,1.320611,-5.427481,1.872266,-0.06703765,10.25676,-0.9694656,0.6641222,-7.770992,7.943961,1.668759,10.51055,-0.1450382,-0.6030535,14.52672,13.84327,0.6775591,10.3214,-4.38168,-4.801527,36.39695,-19.41458,2.772485,9.368511,-4.648855,5.526718,35.9771,-5.056554,-0.3471592,9.921572,-1.992366,0.5419847,25.70229,-0.1915361,0.06464344,9.993398,0.4351145,0.4961832,-15.12214,-37,1
-0.009576807,-0.03591302,10.12029,-0.6183206,1.603053,-1.419847,0.5530606,0.1675941,10.13945,-0.8625955,1.053435,1.938931,-0.2226608,-0.04788403,10.12987,-0.832061,1.549618,-1.183206,1.063026,0.1149217,10.19691,-0.7557252,0.7099237,-8.625955,9.684546,1.838747,10.41238,-0.007633588,1.557252,1.633588,13.14417,-2.554613,10.29507,0.3664122,2.312977,4.694656,-19.6133,5.137957,9.016563,-3.59542,4.206107,-11.51908,-0.3591303,-0.557849,10.12268,-1.030534,0.5496183,30.77099,-0.2298434,-0.1843535,10.20409,-0.4503817,0.7022901,-5.007634,-0.1628057,-0.09097966,10.06522,-0.778626,1.045802,-1.389313,-0.2202666,0.320823,10.04368,-0.8015267,1.312977,-1.48855,-19,1
-0.4046201,0.1244985,10.13705,-1.221374,1.045802,5.954198,0.6895301,-0.05746084,10.15141,-1.267176,1.496183,-3.137405,0.9337386,0.01197101,10.14184,-0.6946565,1.816794,-6.351145,2.078167,0.002394202,10.25437,-0.5801527,1.572519,-24.47328,19.6127,4.13718,10.8194,0.6564885,-1.755725,4.351145,-3.560178,-0.3782839,10.73799,-3.70229,-5.900764,-104.0153,-15.67005,-1.367089,8.652645,2.038168,-3.473282,-12.47328,-2.267309,0.9792285,10.0748,-0.480916,0.129771,28.40458,-0.2274492,-0.1149217,10.12747,-0.6946565,0.9236641,-1.305344,-0.1723825,-0.1651999,10.12029,-0.740458,0.7251908,-1.076336,-0.08140286,-0.1292869,10.1179,-0.6412213,1.549618,-1.816794,-17,1
0.8116343,0.2106898,10.16817,-1.045802,1.778626,2.152672,3.756502,-0.4453215,10.34774,0.1908397,1.503817,-24.75573,17.6333,1.714248,10.67575,0.2213741,-2.671756,57.23664,-14.63815,0.1963245,9.483433,-0.3969466,6.061069,-23.0,-9.229648,0.6272808,9.995792,1.114504,4.068702,-24.63359,-0.2442086,0.3040636,10.06522,-0.3053435,1.496183,-3.80916,-0.4644751,-0.06224924,10.13226,-1.564886,1.175573,0.648855,-0.1292869,-0.08140286,10.14902,-1.061069,0.7328244,-0.9465649,-0.1915361,-0.04309563,10.08917,-0.5648855,1.038168,2.450382,-0.2394202,-0.08619126,10.11311,-1.053435,0.6335878,1.648855,-0.2226608,-0.09576806,10.16817,-0.4274809,0.7480916,3.129771,4,1
0.08140286,0.04309563,10.14423,-0.480916,1.80916,6.656488,0.5722142,0.272939,10.14184,-0.5954198,1.549618,-2.885496,6.160281,-0.2633622,9.763555,-1.709924,0.4274809,-21.8855,5.17387,-1.371878,10.63026,-0.6641222,1.244275,-39.38931,-1.194707,-2.454057,9.476251,-1.984733,-1.427481,8.442748,-6.885724,0.9983821,9.818622,-2.496183,-3.419847,23.66412,-2.559402,0.2992752,10.1562,0.4885496,0.9007633,-17.46565,-0.06703765,-0.7398083,10.31183,-2.0,0.2061069,2.267176,0.07182605,-0.05267244,10.13705,-0.9236641,0.7633588,2.725191,0.260968,-0.8714894,10.59195,3.10687,4.10687,-6.664122,0.04070143,-0.05267244,10.1155,-0.03816794,3.282443,-1.221374,-1,1
0.1580173,0.0,10.09156,-0.2824428,1.641221,-4.755725,1.283292,0.004788404,10.11311,-2.335878,1.0,-4.335878,14.87278,-0.260968,10.40759,-0.389313,-2.839695,-0.1068702,2.600103,-1.491588,11.19289,-4.946565,-3.366412,10.51145,-12.71321,2.762909,10.34295,-8.435115,-1.053435,15.28244,-5.116409,-0.6105214,10.13945,7.717557,1.038168,-24.58015,-0.1915361,-0.09816227,10.08438,-1.564886,0.03816794,14.96183,0.1316811,-0.01915361,10.09395,-2.0,1.19084,12.03053,0.1460463,-0.02154782,10.13705,-1.427481,0.7099237,1.877863,0.004788404,0.04070143,10.15141,-1.931298,2.061069,-0.4961832,-0.002394202,-0.09816227,10.1155,-1.045802,0.7175572,2.114504,3,1
0.8355764,-0.3711013,10.15141,0.01526718,1.557252,-11.9084,0.9911995,-0.05746084,10.10353,-0.740458,1.061069,0.6412213,0.1699883,0.2322376,10.14902,-1.167939,1.587786,4.694656,2.530671,0.1556231,10.24,-0.8167939,1.748092,-8.099236,17.21671,2.087744,10.71166,-1.0,-2.229008,36.94656,1.381454,-3.845088,9.385271,-4.763359,-4.877862,-70.40458,-16.95813,-1.54426,9.466674,0.5114504,1.091603,-40.0,-0.6871359,0.926556,10.13466,-1.068702,1.694656,-3.687023,-0.1508347,-0.07900865,10.02692,-1.030534,0.7709923,-1.206107,-0.09337386,-0.1795651,10.07959,-1.030534,0.7709923,-0.9770992,-0.2178724,0.2418144,10.15141,-0.5267176,1.21374,-1.435114,-20,1
0.08619126,-0.2035071,10.08917,-1.10687,1.40458,4.38168,1.077391,-0.1723825,10.18015,-0.9160305,0.9541985,-0.9312977,5.075707,-0.5889736,10.2831,-0.6793893,2.10687,-1.40458,10.23282,0.5602432,10.27352,0.1526718,-1.183206,-5.778626,10.33337,0.08140286,10.71645,2.557252,-1.251908,14.8397,-16.44098,-1.180341,9.160215,-4.671756,6.419847,12.48855,-7.058106,-0.004788404,10.12987,0.9389313,1.328244,-3.351145,-0.1532289,0.01675941,10.14184,-0.9389313,0.7709923,-1.374046,-0.1580173,-0.1029507,10.04607,-1.801527,0.9083969,0.648855,-0.1699883,-0.1460463,10.13945,-0.6183206,1.580153,-1.305344,-0.1460463,0.06464344,10.16817,-0.5572519,0.8549618,-1.198473,4,1
-0.4501099,-0.1915361,10.06044,-0.3129771,1.10687,-2.641221,0.004788404,-0.1244985,10.22803,-1.0,1.374046,-3.022901,-0.08858546,-0.03591302,9.945514,-1.251908,0.8167939,-2.160305,0.5195417,0.1747767,10.10832,-0.9236641,0.9694656,6.534351,-0.1699883,-0.02633622,10.12987,-1.160305,1.633588,5.847328,1.628057,0.07900865,10.19691,-0.9923664,1.78626,8.603053,10.57998,0.6991069,10.47224,1.778626,1.900763,-13.98473,10.05804,-1.146823,9.437943,1.862595,4.343512,59.01527,-19.6133,2.497152,9.406818,-1.389313,-0.1068702,12.77863,-3.557784,-0.3232172,10.05325,-0.3969466,1.175573,4.70229,-0.4094085,0.3136404,10.09395,-0.7709923,0.9694656,-6.465649,-37,1
1.053449,-0.02873042,10.18493,-0.7175572,1.145038,-4.412214,1.417367,-0.1292869,10.15141,-0.9923664,1.007634,-0.6946565,5.901707,0.4046201,10.3214,-0.4580153,2.152672,-6.29771,17.08742,1.673547,10.75236,-3.389313,-1.969466,86.48855,-16.79293,0.9816227,9.720459,-4.694656,-0.6564885,-6.839694,-5.793968,-2.116474,9.818622,0.648855,0.9007633,-1.10687,-0.09576806,-0.06224924,10.07241,-0.778626,1.870229,-3.343511,-0.05267244,-0.04070143,10.07241,-0.389313,1.984733,-15.45038,-0.1628057,-0.07182605,10.10832,-0.778626,0.4274809,-1.335878,-0.2011129,-0.04788403,10.09156,-0.5114504,1.656489,-1.267176,-0.1221043,-0.04309563,10.10353,-0.8396947,0.8244275,-1.374046,-4,1
-0.1771709,0.007182605,10.09874,-0.9389313,1.40458,-1.053435,-0.1699883,-0.06943185,10.10593,-1.396947,2.748092,-1.221374,8.599973,0.1364695,10.23282,1.236641,0.3282443,-2.045802,10.58237,-0.9864111,10.28549,1.259542,0.740458,-0.9694656,-19.54147,2.348712,9.586384,1.274809,1.465649,-55.03053,-0.9840169,-0.1915361,10.18493,0.2061069,0.6183206,-6.694656,-0.6033388,0.1340753,10.09395,-1.152672,0.3053435,9.21374,-0.1915361,-0.04788403,10.13466,-0.1984733,1.053435,-1.022901,-0.1651999,-0.06464344,10.0772,-0.648855,0.8854962,-1.496183,-0.1460463,-0.03112462,10.10832,-0.6793893,1.038168,-1.259542,-0.1675941,0.007182605,10.16099,-0.6259542,0.9312977,-1.305344,-4,1
0.3256114,0.1364695,10.1179,-0.351145,1.480916,5.08397,1.640028,0.6464345,10.17536,-0.6793893,1.900763,-5.389313,7.00304,-0.6560113,10.25197,-2.839695,-6.007634,-25.74809,1.886631,-0.03351882,10.13226,-1.068702,1.458015,-9.946565,-4.970363,0.09576806,9.706094,1.59542,-4.694656,26.69466,-5.595249,0.6368576,10.06762,0.9083969,0.8015267,10.41985,-1.04866,-0.1125275,10.11071,-0.1908397,2.068702,-14.9771,0.07182605,0.002394202,10.08198,-1.061069,-0.1374046,-0.351145,0.05027823,0.01675941,10.0772,0.2442748,1.709924,0.648855,0.2322376,-0.237026,10.14184,-0.3206107,2.030534,-2.969466,0.2226608,0.2298434,10.13466,2.030534,2.442748,0.6717557,3,1
-0.1149217,0.0,10.06522,-0.7251908,1.259542,2.129771,3.083732,0.1292869,10.21366,-0.8091603,1.145038,0.6564885,19.6127,3.215413,10.63026,1.625954,-1.007634,-2.038168,-2.303222,-4.910508,9.739613,-3.206107,2.091603,22.42748,-17.0108,-3.356671,9.244013,3.854962,3.48855,-70.96947,-0.09576806,0.2896984,10.02931,-0.4274809,1.419847,1.618321,-0.6727707,-0.1484405,10.1586,-0.870229,0.3969466,-5.076336,-0.03351882,-0.1340753,10.21366,-0.9847328,0.8244275,-0.961832,-0.2346318,0.3782839,10.0748,-0.5801527,1.137405,-1.435114,-0.3064578,-0.1508347,10.04846,-0.7175572,1.21374,-3.229008,-0.07661445,-0.1173159,10.1562,-0.7099237,1.389313,-5.450382,5,1
-0.05506664,-0.06464344,10.10114,-0.6335878,0.7480916,-0.9007633,-0.004788404,-0.02154782,10.08438,-1.89313,1.580153,-1.526718,0.06224924,-0.07182605,10.05325,-0.7862596,1.549618,4.755725,0.7445967,0.1651999,10.07959,-1.083969,1.59542,-3.51145,6.852205,0.07422025,10.27591,0.4198473,-0.1145038,-19.83206,4.776433,-1.364695,10.69011,-0.7709923,6.625954,-40.36642,-3.86903,-1.228225,11.09712,-0.6564885,-8.541985,13.37405,-6.787562,0.6129156,10.4052,-3.641221,0.3816794,18.70229,-2.47321,-0.1723825,10.0317,-0.6259542,0.8778625,-20.16794,-0.2346318,-0.2513912,10.05804,-1.389313,0.5801527,0.389313,0.1508347,-0.04548983,10.14423,-0.7022901,0.740458,1.48855,-20,1
0.8619126,0.0,10.12508,-0.4885496,0.4961832,-2.396947,1.228225,0.2059013,10.12747,-0.961832,1.045802,0.3282443,11.34612,1.098939,10.27112,-1.969466,1.083969,-0.389313,13.72596,-3.028665,10.82658,-2.870229,-6.007634,15.77099,-19.6133,5.006276,9.339781,-0.9847328,1.435114,-2.549618,-2.561796,0.4094085,10.14423,-1.442748,-0.6641222,54.04581,-0.533907,-0.1268927,10.06283,-0.9389313,1.328244,-11.63359,-0.2178724,-0.02873042,10.13945,-0.9847328,0.8854962,-1.908397,-0.1292869,0.03591302,10.11071,-0.3740458,1.198473,-1.618321,-0.1723825,-0.1268927,10.12268,-0.9160305,1.236641,-1.244275,-0.1819593,0.06224924,10.10114,-0.5954198,1.145038,-1.358779,-3,1
0.3543419,-0.07661445,10.13226,-0.7557252,1.396947,-3.763359,-0.1963245,-0.05746084,10.05325,-0.7938931,2.129771,-1.206107,0.56982,-0.009576807,10.24239,-0.6412213,1.908397,5.419847,4.788404,-0.260968,10.32619,0.259542,2.030534,-25.59542,17.46091,1.161188,11.19289,1.732824,-3.740458,68.44275,-16.42183,1.244985,9.540894,-3.862595,1.633588,-20.09924,-7.402872,-0.07422025,9.775525,-0.2519084,3.076336,-14.24428,-0.1197101,0.1268927,10.13226,-0.9083969,0.9083969,-1.160305,-0.521936,-0.2178724,10.15141,-1.51145,0.8473283,-0.8854962,-0.3280056,-0.07182605,10.10114,-0.9541985,0.9923664,-0.1068702,-0.1556231,-0.06464344,10.1562,-0.5343512,0.7328244,3.40458,-15,1
0.28491,-0.05985504,10.08438,-0.9389313,0.9007633,-4.938931,0.3471592,-0.007182605,10.06762,-1.526718,1.068702,-4.312977,0.4357447,-0.04309563,10.11311,-1.442748,0.4351145,-1.740458,1.47004,-0.01436521,10.20409,0.8091603,1.625954,2.122137,8.224083,0.1436521,9.643845,-5.328244,-0.5114504,-7.274809,4.204218,1.927332,9.279925,1.389313,-14.32061,59.39695,-8.774749,2.171541,9.346964,-5.358778,-1.030534,33.29771,-5.190629,0.5650316,10.41957,2.89313,1.175573,-5.152672,-0.842759,-0.830788,10.23521,-2.793893,0.7480916,2.89313,-1.053449,0.03112462,10.21366,0.519084,1.343511,4.351145,-0.3303998,-0.2681506,10.18015,-0.7251908,0.4274809,5.274809,-17,1
0.6847417,0.1364695,10.14902,-0.6412213,0.9236641,-2.442748,-0.09576806,-0.05267244,10.09156,-0.7862596,1.206107,14.06107,4.15394,-0.8882488,10.26155,0.9541985,1.80916,-3.870229,17.28135,-2.762909,10.92714,-1.671756,-4.793893,67.77863,-19.6133,7.10599,10.84334,-1.0,0.2213741,33.0,-2.942474,-1.68073,9.995792,-1.19084,0.3435115,-2.328244,-0.6536171,0.3280056,10.04607,-0.007633588,1.290076,-9.908397,-0.9050082,-0.09816227,10.16578,-0.8091603,1.091603,1.717557,-0.2418144,-0.07900865,10.09874,-0.4580153,1.015267,-1.381679,0.2561796,-0.07661445,9.742006,-0.4274809,0.961832,-1.435114,-0.1316811,-0.01197101,10.1562,-1.267176,0.3740458,-0.8854962,-3,1
0.2178724,-0.1292869,10.11071,-0.740458,1.419847,-5.358778,0.1436521,-0.2106898,10.20409,0.1526718,1.396947,-7.282443,0.2418144,-0.1053449,10.07241,0.1145038,1.977099,-2.274809,0.8978256,-0.08379706,10.14184,-1.435114,0.870229,1.320611,10.84813,0.9744401,10.1993,4.221374,-0.04580153,-9.374045,6.708553,-2.746149,10.01016,-0.259542,-2.312977,14.45038,-11.07079,3.124433,9.648633,-2.0,1.038168,18.31298,-7.302315,1.084573,9.902418,9.061069,2.671756,-23.37405,-0.3711013,-0.1556231,10.09156,1.381679,1.480916,0.7328244,0.1077391,-0.06224924,10.06283,-2.236641,1.030534,11.0687,0.05985504,-0.03591302,10.14184,-0.7175572,1.145038,5.08397,-19,1
1.630451,0.8403648,10.21127,-0.129771,1.587786,2.435115,2.183512,0.1484405,10.16339,-1.022901,0.7251908,-8.572519,18.47606,3.74932,10.59913,-0.5419847,-1.984733,35.32061,3.574543,-3.660734,10.26634,-0.2977099,-7.694656,-5.351145,-19.6133,0.6751649,9.433155,-1.824428,3.267176,-47.38931,-0.2298434,0.6440403,10.05325,-0.5572519,1.198473,7.931298,-0.2011129,-0.007182605,10.06522,-0.5267176,0.8549618,-1.755725,-0.1556231,-0.2202666,10.13945,-0.6793893,1.10687,-1.167939,-0.1675941,-0.01915361,10.12747,-0.5343512,1.328244,-1.152672,-0.2418144,0.1723825,10.14423,-0.7862596,0.9694656,-1.259542,-0.2274492,-0.1077391,10.0772,-0.5801527,0.8091603,-1.267176,3,1
-0.1939303,0.007182605,10.14184,-0.9312977,1.389313,3.923664,0.938527,0.007182605,10.21127,-1.030534,1.664122,5.603054,8.956709,0.1125275,10.39323,0.4656488,1.908397,-8.694656,17.18558,0.272939,10.79306,-4.519084,-5.70229,37.55725,-19.00517,1.934515,9.763555,-1.580153,-0.3664122,-21.30534,-5.767632,0.002394202,9.902418,-0.3969466,2.618321,1.656489,-0.05267244,0.01915361,10.14902,-0.7022901,1.221374,-7.053435,-0.5841852,-0.1412579,10.19691,-0.6259542,0.7557252,1.145038,-0.1436521,-0.09576806,10.17057,-0.9083969,1.335878,-1.099237,-0.1412579,-0.02873042,10.12508,-0.6030535,1.076336,-0.961832,-0.1125275,-0.07900865,10.13705,-1.015267,1.183206,-1.10687,1,1
-0.1580173,-0.02394202,10.14184,-0.9160305,1.396947,3.625954,0.6440403,-0.03351882,10.18972,-0.7175572,1.427481,5.534351,7.879318,0.07661445,10.16817,-0.1374046,0.2137404,-9.603053,16.79054,1.788469,10.40999,0.4274809,1.923664,28.43511,-13.19205,1.158794,9.074024,4.206107,-2.671756,-46.0229,-6.744466,-0.1604115,9.80665,-0.259542,0.870229,0.259542,-0.2226608,0.1101333,10.06522,-0.9236641,1.290076,-8.412213,-0.5147533,-0.02633622,10.19451,-1.343511,0.8244275,1.648855,-0.1604115,-0.03591302,10.19451,-1.160305,1.122137,-1.21374,-0.1221043,0.002394202,10.1155,-0.7328244,1.412214,-1.167939,-0.1628057,-0.09337386,10.14663,-1.061069,1.21374,-1.129771,0,1
-0.1915361,0.04309563,10.1155,-1.091603,1.900763,-1.251908,1.596933,-0.04070143,10.14423,-1.007634,0.870229,-5.312977,13.99171,3.236961,10.40759,-0.3664122,0.1679389,17.80916,7.146692,-3.141193,10.15141,-2.40458,-5.007634,-3.015267,-19.6133,3.636792,9.394848,-2.641221,0.06870229,-36.73283,-0.2561796,0.01675941,9.545682,-1.030534,1.251908,22.70992,-0.2059013,-0.09097966,10.14184,-0.3435115,1.114504,-1.847328,-0.1340753,-0.1292869,10.17057,-0.7328244,0.6946565,-1.083969,-0.272939,0.2011129,10.07001,-0.4198473,1.396947,-1.221374,-0.1628057,0.0,10.12987,-0.7251908,0.9770992,-1.267176,-0.1843535,-0.1244985,10.08677,-0.6259542,0.6412213,-1.137405,2,1
0.6105214,0.1484405,10.1562,-0.740458,1.221374,-0.9160305,0.06943185,0.06224924,10.14663,-0.6717557,1.015267,9.961832,5.765238,-1.570596,10.489,-0.2748091,2.030534,-7.732824,14.1641,-3.53863,10.80743,1.068702,0.5725191,33.91603,-19.6133,7.426814,9.849746,-7.961832,5.122138,9.732824,-3.354277,-1.407791,9.998186,1.10687,1.007634,-15.9771,-0.4572925,0.1699883,10.1155,0.2442748,1.40458,-9.908397,-0.4165911,-0.1244985,10.10593,-0.6183206,1.0,0.07633588,-0.2442086,0.1771709,10.09395,-0.4122138,1.099237,-1.473282,-0.1963245,0.05985504,10.16099,-0.5038168,0.7862596,-0.9541985,-0.1173159,-0.02633622,10.1562,-0.9694656,0.5267176,-0.961832,-2,1
0.2537854,-0.08379706,9.995792,-0.519084,1.847328,-4.007634,0.3974375,0.02394202,10.04128,-1.030534,1.473282,-3.641221,0.4548983,0.2873042,10.15381,0.01526718,2.160305,-2.480916,1.391031,0.2657564,10.12987,0.3129771,1.564886,0.2290076,8.662222,-0.1125275,10.70926,0.1526718,1.740458,-4.305344,1.005565,0.9552865,9.136273,-0.8473283,2.816794,50.12977,-8.698134,0.6512229,9.251195,-7.251908,-0.7175572,2.0,-4.357447,0.248997,10.53209,0.9160305,1.793893,-5.251908,-0.5985504,-0.5315128,10.06762,-2.923664,-0.6259542,3.137405,-0.8762778,-0.1915361,9.85214,-0.1526718,1.847328,1.824428,-0.2298434,-0.2992752,10.10832,-1.251908,1.099237,3.503817,-16,1
-0.1556231,-0.05027823,10.1179,-1.206107,1.541985,0.9770992,0.2011129,-0.05985504,10.18254,-1.946565,1.870229,6.877862,5.272032,0.2992752,10.34295,-1.396947,1.656489,12.20611,10.23761,-1.182736,9.40203,-2.305344,4.923664,42.1832,-5.640739,0.1675941,9.289502,1.480916,-0.870229,-2.503817,-9.339781,1.180341,9.799467,-1.038168,0.6717557,36.83206,-0.4692635,0.1484405,10.04846,-0.6564885,0.1068702,-33.0,-0.1268927,-0.04788403,10.08198,-0.5648855,1.351145,-0.7862596,-0.1651999,-0.05746084,10.0748,-1.10687,1.305344,-0.259542,-0.1580173,-0.1412579,10.13226,-1.946565,1.519084,-1.396947,-0.7541735,-0.2154782,10.05565,-4.389313,2.21374,3.908397,-1,1
-0.3591303,-0.1795651,10.13226,-0.5801527,0.4122138,3.198473,-0.3687071,-0.1747767,10.05565,-0.1603053,1.40458,2.541985,0.08619126,-0.03351882,10.18733,-0.8549618,1.259542,-3.458015,0.4285621,-0.1173159,10.05325,-0.9923664,1.938931,-5.114504,1.165976,0.1149217,10.1586,-0.7557252,1.503817,-0.09160305,2.183512,0.1292869,10.17057,-0.4961832,1.167939,10.72519,10.09156,1.051055,10.17296,0.2213741,4.068702,-6.824428,9.172187,-0.7996634,9.835381,-1.251908,0.1908397,31.78626,-18.9525,1.438915,9.627085,-8.862596,-3.839695,34.12977,-5.080496,0.2154782,9.952697,0.4656488,3.480916,-13.25191,-0.06464344,0.03112462,10.14423,-1.061069,0.3358779,-2.862595,-37,1
-0.1963245,-0.02873042,10.02692,-0.9236641,1.244275,-1.900763,1.92015,0.2681506,10.20169,-0.7022901,1.091603,-4.480916,13.90313,1.137246,10.55125,-3.732824,0.3587786,12.00763,9.332599,-3.483563,10.64701,4.51145,1.580153,-11.0229,-19.6133,3.330335,9.85214,-3.519084,1.519084,-23.0916,-1.429338,0.830788,10.00537,-1.549618,-0.04580153,39.13741,-0.4285621,-0.09337386,10.14423,-0.3129771,0.519084,-3.732824,-0.09576806,-0.03351882,10.10593,-0.8549618,1.0,-1.221374,-0.1077391,0.04548983,10.17057,-0.519084,1.541985,-1.847328,-0.1412579,-0.1604115,10.12987,-0.9312977,1.007634,-1.366412,-0.1699883,0.05027823,10.18015,-0.5343512,1.389313,-1.389313,-2,1
0.1292869,0.0,10.17775,-0.7862596,0.9236641,6.045802,0.7398083,-0.1268927,10.15381,-0.7022901,1.51145,-1.648855,0.5315128,-0.3112462,10.14902,-0.8091603,2.732824,5.549618,5.827487,0.4189853,10.2807,0.5038168,1.419847,-3.312977,11.63343,1.074997,10.21606,0.648855,-2.10687,17.68702,-1.403002,-0.8092402,9.595961,-5.145038,-1.908397,10.94656,-16.67562,0.617704,9.873688,-1.793893,-1.725191,-28.0,-1.714248,0.3974375,10.03889,-0.1908397,0.6030535,-6.198473,-0.1125275,0.04548983,10.12747,-1.335878,0.6335878,5.59542,-0.06943185,-0.28491,10.16339,-0.9541985,1.442748,0.7938931,-0.1580173,-0.03591302,10.18015,-0.480916,1.496183,-1.038168,-1,1
-0.2059013,0.04070143,10.09874,-1.129771,1.137405,2.633588,2.073379,0.02873042,10.24479,-0.7633588,0.9312977,-3.480916,18.89983,2.937685,10.64701,-0.4274809,0.9923664,-3.725191,3.687071,-3.89776,10.11071,-4.374046,-0.9694656,32.94657,-19.6133,0.1604115,9.11712,3.083969,0.9389313,-93.39695,-0.2537854,0.3519476,10.22324,-1.992366,1.732824,19.0687,-0.5482722,-0.08379706,10.16339,-1.007634,0.259542,-4.603054,-0.1149217,-0.08619126,10.0772,-1.0,0.9236641,-0.7175572,-0.2681506,0.2896984,10.08198,-0.7709923,0.9694656,-1.801527,-0.2322376,-0.1747767,10.1562,-0.6412213,1.580153,-2.984733,-0.2513912,-0.1556231,10.11311,-0.2748091,1.465649,-4.610687,4,1
0.2920926,0.225055,10.18972,-0.3816794,1.877863,2.778626,1.175553,-0.06464344,10.04128,0.1908397,1.793893,-8.129771,6.509834,-0.4884171,10.13226,-2.206107,-1.267176,-22.40458,3.596091,-1.189918,9.174581,0.0610687,-1.022901,-28.33588,-4.194642,0.3974375,9.296685,-1.664122,3.854962,30.03817,-6.138733,0.6153098,9.684546,-1.763359,-1.633588,16.9313,-1.127669,-0.3878607,9.991004,0.1908397,1.603053,-17.74809,0.04309563,0.002394202,10.12508,-1.358779,-0.519084,-1.114504,0.1244985,-0.03591302,10.09874,0.03816794,1.290076,0.8931297,0.04309563,-0.009576807,10.08438,-0.1603053,2.396947,-2.290076,0.09337386,0.009576807,10.13945,0.389313,1.923664,-0.9847328,2,1
-0.1963245,0.004788404,10.08198,-0.8549618,1.534351,-1.328244,-0.2106898,-0.06224924,10.14184,-1.282443,2.274809,-1.335878,7.836222,0.3303998,10.66856,-0.1450382,1.175573,4.358778,12.78983,-1.922544,10.63026,-0.8396947,-4.51145,-30.76336,-19.6133,3.236961,9.648633,-2.160305,1.908397,-43.35115,-1.355118,-0.6224924,10.24239,-0.2977099,0.740458,10.54199,-0.3663129,0.03830723,10.04846,-0.9541985,0.2137404,10.01527,-0.2202666,-0.03830723,10.12508,-0.7480916,1.290076,-1.358779,-0.1628057,-0.02633622,10.10832,-0.5343512,1.015267,-1.389313,-0.1628057,-0.01915361,10.07001,-0.8549618,1.061069,-1.320611,-0.1460463,-0.03591302,10.0772,-0.3587786,0.740458,-1.152672,-5,1
-0.1891419,-0.09816227,10.1562,-0.7938931,1.40458,-1.19084,-0.1675941,-0.06464344,10.10114,-0.8473283,1.450382,0.6259542,-0.1508347,-0.07182605,10.10832,-1.793893,1.938931,1.48855,2.530671,0.1484405,10.27591,-1.053435,1.290076,14.69466,8.248025,-0.4548983,10.04846,-0.6564885,-1.763359,30.59542,1.843535,-1.446098,10.29267,-1.51145,-2.755725,21.22138,-13.09628,2.293645,10.13226,3.053435,2.251908,-18.44275,-3.174711,0.6464345,10.12747,0.3206107,0.6564885,-10.22138,0.1077391,0.06703765,10.08198,-0.9770992,1.053435,-12.96183,-0.1795651,-0.1556231,10.09635,-0.6030535,2.152672,1.709924,-0.1484405,-0.1125275,10.13945,-1.259542,1.70229,-1.503817,-15,1
1.067814,-0.002394202,10.18015,-0.870229,1.312977,-3.458015,0.7230489,-0.05985504,10.1179,-0.5877862,1.221374,-0.8854962,5.683835,0.5746084,10.18733,-1.29771,1.603053,-6.465649,19.6127,-0.05267244,10.57519,-4.351145,6.473282,57.37405,-16.0627,-2.63841,9.320627,-0.4351145,-7.564886,-2.274809,-7.120356,-2.121263,9.624691,2.847328,2.80916,-19.32061,-0.04070143,0.009576807,10.12747,-0.7557252,1.618321,-8.427481,-0.1412579,-0.1149217,10.07001,-0.1221374,1.732824,-15.79389,-0.1795651,-0.08858546,10.13466,-0.6412213,0.4427481,-1.633588,-0.1963245,-0.02394202,10.13705,-0.5038168,1.221374,-1.374046,-0.1819593,-0.08619126,10.13226,-0.610687,0.648855,-1.717557,-5,1
-0.03591302,-0.009576807,10.10593,-0.4656488,1.427481,-1.519084,-0.06224924,-0.03351882,10.09395,-0.4656488,1.458015,-2.458015,-0.09337386,-0.004788404,10.02692,-0.3587786,0.5343512,0.6412213,0.7900866,0.002394202,10.09635,0.9236641,1.335878,-5.648855,8.863335,0.5315128,10.43633,2.931298,-1.183206,1.473282,5.56173,-0.6320692,10.92235,-0.4427481,-7.40458,49.53435,-4.929661,0.4381389,10.89362,-5.030534,-0.8931297,31.30534,-9.023746,1.180341,10.65899,-0.3740458,0.6259542,10.66412,-3.564966,-0.6464345,10.23042,2.877863,-2.419847,-15.44275,-0.09337386,-0.06943185,10.17296,-2.022901,0.2442748,-0.648855,0.1843535,0.07182605,10.10832,-0.6641222,1.48855,2.29771,-20,1
0.4572925,-0.05027823,10.22564,-1.145038,1.572519,2.305344,1.276109,0.1005565,10.13466,-1.053435,1.19084,-1.603053,4.491522,0.05027823,10.21845,-1.312977,2.427481,-0.6717557,10.36929,0.8259995,10.21845,0.5114504,2.045802,0.3969466,8.930372,0.3830723,9.957485,-1.587786,4.938931,14.07634,-17.80089,-0.4764462,9.411607,0.6870229,-2.427481,-23.29771,-5.415684,-0.05267244,9.947908,0.9847328,1.145038,-4.007634,-0.1747767,0.05506664,10.17536,-1.068702,0.8549618,-1.099237,-0.1101333,-0.04548983,10.17296,-1.679389,0.8167939,-0.648855,-0.1077391,-0.1173159,10.17057,-0.6564885,1.557252,-1.48855,-0.1268927,0.1101333,10.08917,-0.8625955,0.519084,-1.351145,5,1
-0.01197101,-0.05746084,10.08198,-0.870229,1.122137,0.7633588,-0.2346318,-0.004788404,10.12747,-0.519084,1.389313,-1.312977,0.2633622,-0.02394202,10.19212,-0.389313,1.519084,-6.145038,5.11162,0.4501099,10.31662,-0.5877862,1.145038,-9.870229,17.21192,1.575385,11.08515,-1.351145,2.229008,44.60306,-15.47851,-1.223437,9.572019,2.091603,-8.19084,-106.3664,-6.924031,-3.124433,9.868899,-1.603053,1.030534,52.49618,-0.9696517,0.3016694,10.05565,0.2519084,2.19084,-36.68702,-1.000776,-0.1221043,10.03889,-1.030534,0.778626,-1.152672,-0.05985504,-0.1268927,10.08198,-0.6412213,0.9083969,0.9312977,-0.08858546,-0.2011129,10.12508,-0.3969466,1.076336,-1.312977,-20,1
0.4237737,-0.05027823,10.14184,-0.8473283,1.206107,-4.10687,0.9648633,0.272939,10.25676,-0.7251908,2.358779,2.633588,2.880225,-0.1747767,10.11311,-0.7480916,1.557252,-2.412214,14.98531,1.651999,10.72124,-1.183206,-3.832061,0.9923664,-2.291251,-2.123657,11.83933,2.122137,2.419847,17.75573,-18.28212,1.455675,9.974244,-2.305344,0.03053435,4.312977,-2.1883,0.3399766,10.07001,-0.03053435,1.381679,-15.67939,0.1819593,-0.1915361,10.17057,-1.328244,1.274809,-2.992366,-0.2394202,-0.03591302,10.12987,-1.175573,1.099237,-1.923664,-0.1029507,-0.05506664,10.12747,-0.7175572,0.6183206,-2.267176,-0.4932055,-0.1675941,10.17775,-0.7709923,0.9160305,-0.6793893,-4,1
-0.2106898,-0.06224924,10.14184,-1.282443,2.274809,-1.335878,7.836222,0.3303998,10.66856,-0.1450382,1.175573,4.358778,12.78983,-1.922544,10.63026,-0.8396947,-4.51145,-30.76336,-19.6133,3.236961,9.648633,-2.160305,1.908397,-43.35115,-1.355118,-0.6224924,10.24239,-0.2977099,0.740458,10.54199,-0.3663129,0.03830723,10.04846,-0.9541985,0.2137404,10.01527,-0.2202666,-0.03830723,10.12508,-0.7480916,1.290076,-1.358779,-0.1628057,-0.02633622,10.10832,-0.5343512,1.015267,-1.389313,-0.1628057,-0.01915361,10.07001,-0.8549618,1.061069,-1.320611,-0.1460463,-0.03591302,10.0772,-0.3587786,0.740458,-1.152672,-0.2466028,-0.02394202,10.16578,-0.7633588,1.175573,-0.9312977,5,1
-0.1268927,0.01675941,10.04368,-0.5954198,0.9541985,-3.221374,0.4357447,0.07182605,10.18015,-0.9923664,0.5877862,2.0,-0.1580173,-0.02394202,10.14184,-0.9160305,1.396947,3.625954,0.6440403,-0.03351882,10.18972,-0.7175572,1.427481,5.534351,7.879318,0.07661445,10.16817,-0.1374046,0.2137404,-9.603053,16.79054,1.788469,10.40999,0.4274809,1.923664,28.43511,-13.19205,1.158794,9.074024,4.206107,-2.671756,-46.0229,-6.744466,-0.1604115,9.80665,-0.259542,0.870229,0.259542,-0.2226608,0.1101333,10.06522,-0.9236641,1.290076,-8.412213,-0.5147533,-0.02633622,10.19451,-1.343511,0.8244275,1.648855,-0.1604115,-0.03591302,10.19451,-1.160305,1.122137,-1.21374,-20,1
-0.07182605,-0.009576807,10.1155,-0.2977099,1.992366,-0.3435115,1.283292,0.04309563,10.13705,-1.167939,0.9465649,7.610687,4.884171,0.02633622,10.55364,-1.015267,0.351145,-15.39695,10.01495,0.2154782,10.97981,-1.610687,-2.015267,53.12214,-1.359907,-1.910573,9.497798,2.709924,-1.961832,-10.35878,-13.02685,2.142811,8.74123,1.954198,-1.343511,14.0916,-0.2513912,0.1628057,10.12747,-0.9389313,-0.007633588,-9.305344,-0.05027823,-0.308852,10.1155,-0.08396947,2.030534,-8.954199,-0.04548983,-0.04788403,10.04846,-1.129771,0.8625955,-1.305344,-0.08140286,-0.1077391,10.0772,-0.9389313,1.664122,-5.305344,-0.2394202,-0.04788403,10.09635,-0.6335878,0.961832,0.8091603,-4,1
-0.1939303,-0.1053449,10.13466,-0.8091603,1.10687,-1.282443,-0.1987187,-0.07661445,10.20648,-0.9236641,1.251908,-0.480916,-0.213084,-0.09337386,10.06762,-1.030534,1.427481,0.610687,3.392584,0.1436521,10.22564,-3.137405,1.442748,35.48092,8.094796,0.06464344,10.30943,1.183206,-2.854962,29.82443,6.107608,-1.235408,10.19451,-0.2366412,-4.458015,32.9313,-11.17853,2.937685,10.06283,-2.931298,-1.679389,-40.13741,-4.352659,0.6560113,9.97185,-0.8854962,1.0,8.015267,-0.09337386,-0.1005565,10.11311,-1.045802,0.8931297,-16.96947,-0.1508347,-0.09816227,10.12508,-0.3282443,2.480916,1.328244,-0.1460463,-0.1484405,10.13466,-1.083969,0.9923664,-1.381679,-17,1
0.02394202,-0.1604115,10.01734,-0.7022901,1.419847,-1.206107,0.5147533,0.3136404,10.04607,-0.8396947,1.10687,-1.305344,-0.05746084,0.03112462,10.10353,-1.160305,2.633588,8.244275,2.195483,-0.3184288,10.12268,-0.4732824,0.7022901,9.541985,9.701305,0.9552865,10.23042,-0.5114504,-1.725191,-4.091603,5.518635,-1.391031,10.32859,-2.282443,-3.465649,40.51145,-15.22233,2.351106,11.50174,1.938931,5.374046,-28.53435,-6.210559,0.8738836,9.938332,-3.618321,0.6641222,31.64886,0.05506664,-0.2705448,10.1562,0.5343512,1.381679,-8.603053,-0.248997,0.1819593,10.09635,-0.778626,1.633588,-2.480916,-0.1412579,-0.09816227,10.06762,-1.145038,1.328244,-1.351145,-19,1
0.06224924,-0.07182605,10.05325,-0.7862596,1.549618,4.755725,0.7445967,0.1651999,10.07959,-1.083969,1.59542,-3.51145,6.852205,0.07422025,10.27591,0.4198473,-0.1145038,-19.83206,4.776433,-1.364695,10.69011,-0.7709923,6.625954,-40.36642,-3.86903,-1.228225,11.09712,-0.6564885,-8.541985,13.37405,-6.787562,0.6129156,10.4052,-3.641221,0.3816794,18.70229,-2.47321,-0.1723825,10.0317,-0.6259542,0.8778625,-20.16794,-0.2346318,-0.2513912,10.05804,-1.389313,0.5801527,0.389313,0.1508347,-0.04548983,10.14423,-0.7022901,0.740458,1.48855,-0.3136404,0.3495534,10.1993,0.5648855,2.290076,-8.137404,0.05027823,-0.1005565,10.18493,0.8625955,3.412214,-1.412214,0,1
0.2561796,0.1149217,10.09874,-1.175573,0.4122138,8.862596,0.4812346,-0.08858546,10.16339,-0.6412213,1.251908,1.099237,0.7469909,0.5506664,10.08917,-0.832061,2.40458,1.244275,4.60405,0.5410896,10.20409,-1.206107,1.572519,0.6870229,11.26951,0.4644751,10.47463,0.610687,-4.312977,6.80916,5.997475,0.07900865,10.24718,-3.267176,0.4732824,2.381679,-18.60055,-0.3303998,9.835381,-0.6946565,5.572519,-43.62596,-2.844312,-0.007182605,10.17775,-0.3435115,0.4351145,0.5572519,-0.1484405,0.06943185,10.11311,-0.7480916,1.068702,-0.6183206,-0.1532289,-0.1077391,10.12268,-1.229008,1.664122,-0.2061069,-0.1819593,-0.08140286,10.13466,-0.4274809,1.335878,-1.396947,-3,1
0.03591302,-0.06943185,10.04368,-0.4045802,0.4122138,-1.244275,-0.03830723,-0.1460463,10.09635,-0.6335878,0.8625955,-6.366412,0.01675941,-0.1747767,10.13466,2.290076,1.610687,5.648855,0.007182605,-0.05985504,10.1562,-1.305344,1.183206,-1.099237,0.3256114,0.1364695,10.1179,-0.351145,1.480916,5.08397,1.640028,0.6464345,10.17536,-0.6793893,1.900763,-5.389313,7.00304,-0.6560113,10.25197,-2.839695,-6.007634,-25.74809,1.886631,-0.03351882,10.13226,-1.068702,1.458015,-9.946565,-4.970363,0.09576806,9.706094,1.59542,-4.694656,26.69466,-5.595249,0.6368576,10.06762,0.9083969,0.8015267,10.41985,-1.04866,-0.1125275,10.11071,-0.1908397,2.068702,-14.9771,-37,1
0.1628057,-0.09337386,10.06762,-0.9923664,1.435114,-2.381679,0.4836287,0.1340753,10.09156,-0.9694656,1.312977,-0.870229,0.8116343,0.2106898,10.16817,-1.045802,1.778626,2.152672,3.756502,-0.4453215,10.34774,0.1908397,1.503817,-24.75573,17.6333,1.714248,10.67575,0.2213741,-2.671756,57.23664,-14.63815,0.1963245,9.483433,-0.3969466,6.061069,-23.0,-9.229648,0.6272808,9.995792,1.114504,4.068702,-24.63359,-0.2442086,0.3040636,10.06522,-0.3053435,1.496183,-3.80916,-0.4644751,-0.06224924,10.13226,-1.564886,1.175573,0.648855,-0.1292869,-0.08140286,10.14902,-1.061069,0.7328244,-0.9465649,-0.1915361,-0.04309563,10.08917,-0.5648855,1.038168,2.450382,-16,1
-0.2106898,-0.04548983,10.13466,-0.870229,1.305344,0.1526718,-0.1963245,-0.1292869,10.12508,-1.526718,1.816794,3.877863,3.426103,0.3232172,10.30943,-0.9465649,1.610687,14.80916,9.540894,-0.56982,9.900024,-0.961832,0.6564885,31.32061,-2.442086,-1.146823,10.55125,2.954198,7.824428,5.51145,-11.46104,1.357512,9.773131,1.206107,3.496183,31.54962,-0.1244985,-0.2466028,10.14423,-0.3053435,-0.778626,-17.81679,-0.02154782,-0.08858546,10.21366,-1.038168,0.7862596,-2.435115,-0.1364695,-0.1819593,10.13466,-0.961832,1.343511,0.3053435,-0.1795651,-0.1436521,10.12747,-1.48855,1.717557,-1.870229,-0.1891419,0.06464344,10.14902,-2.70229,1.458015,-1.160305,-3,1
-0.2035071,-0.007182605,10.11311,-1.045802,1.435114,5.312977,0.7445967,0.08140286,10.16099,-0.9083969,1.656489,9.290076,9.548077,0.6272808,10.29028,1.091603,4.763359,-11.34351,12.8018,0.1221043,11.1091,0.3053435,-9.244275,54.78626,-19.6133,3.055001,9.165004,-4.984733,4.519084,-4.603054,-4.496311,-0.28491,10.04846,-0.4122138,0.7022901,5.137404,0.344765,-0.03112462,10.1993,-0.6564885,0.8015267,-9.824428,-0.1963245,-0.09337386,10.12029,-0.9847328,0.5801527,-0.9083969,-0.1675941,-0.07182605,10.16099,-0.5877862,1.198473,-1.167939,-0.1484405,-0.05267244,10.15381,-0.9083969,1.320611,-1.19084,-0.1651999,-0.06464344,10.04607,-0.9770992,1.0,-0.8931297,2,1
0.5674258,0.08619126,10.1179,-0.961832,1.221374,-3.374046,1.216254,0.1364695,10.12029,-0.5267176,1.519084,-10.71756,6.945579,1.194707,10.33816,0.3664122,1.954198,-13.51908,14.4538,-2.983175,10.67575,-2.145038,1.083969,9.061069,-19.6133,8.42759,8.992621,0.6641222,-1.145038,-12.0229,-1.671153,-0.5051765,9.967062,-0.7938931,0.06870229,36.35878,-0.3495534,-0.344765,10.10832,-0.08396947,0.8549618,-13.53435,-0.2298434,-0.03830723,10.13705,-1.29771,0.8167939,-2.748092,-0.1651999,0.1915361,10.1179,-0.5267176,0.9694656,-1.343511,-0.1532289,-0.1460463,10.13945,-0.4198473,1.236641,-1.259542,-0.1699883,-0.1173159,10.08677,-0.7175572,1.007634,-0.7938931,0,1
-0.2226608,-0.04788403,10.12987,-0.832061,1.549618,-1.183206,1.063026,0.1149217,10.19691,-0.7557252,0.7099237,-8.625955,9.684546,1.838747,10.41238,-0.007633588,1.557252,1.633588,13.14417,-2.554613,10.29507,0.3664122,2.312977,4.694656,-19.6133,5.137957,9.016563,-3.59542,4.206107,-11.51908,-0.3591303,-0.557849,10.12268,-1.030534,0.5496183,30.77099,-0.2298434,-0.1843535,10.20409,-0.4503817,0.7022901,-5.007634,-0.1628057,-0.09097966,10.06522,-0.778626,1.045802,-1.389313,-0.2202666,0.320823,10.04368,-0.8015267,1.312977,-1.48855,-0.1795651,-0.1197101,10.13466,-0.648855,1.114504,-0.8854962,-0.2106898,-0.1244985,10.08677,-0.6946565,0.7557252,-0.9160305,1,1
-0.1699883,-0.02633622,10.12987,-1.160305,1.633588,5.847328,1.628057,0.07900865,10.19691,-0.9923664,1.78626,8.603053,10.57998,0.6991069,10.47224,1.778626,1.900763,-13.98473,10.05804,-1.146823,9.437943,1.862595,4.343512,59.01527,-19.6133,2.497152,9.406818,-1.389313,-0.1068702,12.77863,-3.557784,-0.3232172,10.05325,-0.3969466,1.175573,4.70229,-0.4094085,0.3136404,10.09395,-0.7709923,0.9694656,-6.465649,-0.1484405,-0.1268927,10.1562,-1.244275,0.2748091,-1.21374,-0.1580173,-0.04309563,10.10114,-0.648855,1.267176,-1.496183,-0.1843535,-0.02633622,10.16817,-0.8167939,1.122137,-0.9389313,-0.1675941,-0.1388637,10.12987,-0.7557252,0.9847328,-0.7175572,3,1
0.1580173,-0.1532289,10.10353,-0.5954198,1.687023,-2.29771,0.2418144,-0.05985504,10.20409,-0.9847328,1.152672,-2.519084,-0.1747767,-0.04070143,10.09395,-0.4732824,2.763359,-0.6030535,1.716643,0.1316811,10.17536,-0.8473283,1.10687,0.007633588,8.793902,0.9528923,10.63744,2.641221,-1.259542,-6.419847,4.979939,-0.782904,10.77391,0.09160305,-8.862596,-8.519084,-14.29099,-0.7422025,10.85292,-2.480916,-8.221375,30.21374,-5.161899,0.1580173,9.804255,-0.9923664,0.648855,-3.587786,0.009576807,0.05267244,10.17536,-0.9847328,0.6030535,-0.6946565,-0.2561796,-0.06943185,10.10353,-1.435114,1.427481,4.427481,-0.1484405,-0.04070143,10.16339,-0.8091603,0.7709923,-1.122137,-19,1
0.5770026,0.272939,10.16578,-0.740458,1.221374,0.7251908,0.1173159,0.01915361,10.11311,-0.7175572,0.9770992,5.48855,7.472303,-0.3687071,10.41478,-0.7557252,0.778626,-12.77863,10.18972,-4.553771,10.29028,-1.526718,-1.816794,18.84733,-19.02672,3.550601,9.169792,-5.923664,0.6946565,-24.35115,-2.559402,-0.806846,9.89763,0.6793893,0.7099237,1.244275,-0.4596867,0.05027823,10.06522,-0.1526718,1.51145,-7.519084,-0.3806781,-0.06943185,10.12029,-0.2366412,0.9694656,-0.04580153,-0.3280056,0.3471592,10.05804,-0.08396947,1.312977,-1.198473,-0.2154782,-0.03351882,10.09395,-0.129771,1.030534,-1.152672,-0.1101333,-0.007182605,10.16099,-1.015267,1.0,-1.267176,-1,1
-0.1843535,-0.06224924,10.11311,-0.9465649,1.557252,0.0610687,-0.07182605,-0.07661445,10.20169,-1.938931,1.618321,5.51145,4.371812,0.3902549,10.40041,-0.6564885,1.061069,11.34351,8.329428,-0.4644751,10.83376,1.129771,1.183206,36.07634,-4.120421,-1.101333,10.97023,2.290076,0.9389313,-0.7557252,-9.962274,0.7924808,9.847352,-2.89313,-1.954198,33.87023,-0.4860229,-0.1651999,9.974244,-0.6335878,0.3129771,-32.30534,-0.09816227,-0.07182605,10.19691,-0.9083969,1.137405,-1.335878,-0.1556231,-0.1244985,10.18254,-0.7938931,1.267176,-0.3587786,-0.1675941,-0.1149217,10.13226,-1.564886,1.412214,-1.29771,-0.28491,0.06943185,10.07241,-3.19084,1.717557,-1.061069,-2,1
0.2178724,-0.05506664,10.09635,-0.1984733,1.21374,-4.633588,0.3567361,-0.004788404,10.1155,-0.832061,1.030534,-3.083969,0.2561796,0.04309563,10.05565,0.2977099,1.51145,-2.984733,1.556231,0.6512229,10.14423,-0.09160305,1.152672,-2.022901,11.49696,-0.1939303,10.7356,2.885496,-0.2061069,4.564886,-2.695871,0.6967127,10.3214,5.656488,-0.9465649,60.83206,-9.143456,2.047042,10.6135,-0.4122138,-3.450382,2.358779,-2.961627,-0.03112462,9.485827,-2.221374,4.076336,-10.92366,-0.7637503,-0.3663129,10.02452,-1.366412,0.4503817,4.10687,-0.7230489,-0.344765,10.00776,-1.526718,1.572519,-0.4961832,-0.2944868,-0.2944868,10.1179,-0.7633588,0.8778625,4.137404,-15,1
-0.08140286,-0.1125275,10.1993,-0.389313,1.175573,-2.076336,0.4189853,0.1029507,10.17536,-0.6946565,1.244275,-1.51145,0.4884171,0.08858546,10.15141,-1.290076,1.526718,0.7938931,4.386178,-0.4716577,10.21606,0.1603053,2.320611,-20.87023,18.61731,1.745373,11.1067,-0.3435115,-2.625954,43.29771,-12.22,-1.781286,10.0748,-1.419847,5.885496,-6.19084,-11.71244,0.8523358,9.957485,1.061069,1.083969,-35.32061,0.01675941,0.1292869,10.19212,-0.2824428,1.419847,-7.076336,-0.4357447,-0.04070143,10.10593,-1.694656,1.0,3.21374,-0.1292869,-0.1460463,10.1586,-0.9923664,0.4198473,-0.9923664,-0.2442086,-0.02633622,10.19451,-0.5419847,1.236641,0.8625955,-17,1
-0.1867477,-0.06224924,10.1179,-1.137405,1.519084,-1.015267,1.654393,0.2106898,10.2807,-0.4961832,0.9923664,-6.473282,15.25346,1.403002,10.92235,-2.412214,-0.8625955,24.51145,6.272809,-3.201048,10.34535,1.229008,-3.022901,-42.23664,-19.6133,-0.7110779,9.303867,-3.053435,1.40458,-42.35115,-0.7852982,0.8690952,10.1179,-0.4885496,0.7938931,17.13741,-0.2944868,-0.08858546,10.09874,-0.7633588,0.2900764,-1.312977,-0.08619126,-0.08858546,10.16817,-0.8015267,0.9312977,-0.8473283,-0.2059013,0.1005565,10.11071,-0.5572519,1.458015,-1.610687,-0.1029507,-0.1699883,10.17296,-0.9389313,0.7709923,-1.335878,-0.1699883,0.01915361,10.10353,-0.8015267,1.40458,-1.160305,-1,1
-0.05506664,-0.2681506,10.15141,-0.8473283,1.29771,-2.793893,-0.01436521,-0.3184288,10.05086,-0.6183206,1.51145,-4.900764,1.089362,0.2298434,10.10593,-0.6793893,1.160305,-1.969466,1.704672,0.4884171,10.17536,-1.198473,1.526718,12.41985,4.359841,-0.1340753,10.31662,0.1984733,1.519084,1.358779,17.65245,0.9193734,11.1067,0.6870229,-1.381679,32.55725,-12.42112,0.05027823,8.949526,-2.870229,2.900763,34.57252,-10.37647,0.6847417,9.646238,1.801527,2.519084,-13.22901,-0.1867477,0.05267244,10.07001,-0.7480916,-0.3740458,-2.664122,-0.3495534,-0.2561796,10.12987,-1.137405,0.7099237,3.938931,-0.1173159,-0.05985504,10.17536,-0.5267176,0.8931297,-1.259542,-20,1
0.3160346,0.05746084,10.16817,-1.580153,1.389313,7.022901,0.6823475,-0.1292869,10.14663,-0.8473283,1.419847,-0.2290076,-0.04548983,0.1508347,10.1179,-0.5038168,2.969466,1.091603,4.67827,0.03830723,10.1993,0.2137404,0.1068702,-4.740458,11.31021,0.8451532,10.15141,-0.0610687,-1.572519,16.03053,1.908179,-1.766921,9.902418,-5.526718,-6.519084,1.51145,-18.44254,0.6033388,9.67018,-0.4198473,-1.068702,-39.22137,-2.719813,0.5003881,9.969456,-0.09160305,0.8854962,0.1145038,-0.1173159,0.1412579,10.14663,-1.099237,1.0,2.51145,-0.1484405,-0.2106898,10.20648,-1.022901,1.305344,0.9770992,-0.1699883,-0.08140286,10.10593,-0.1908397,1.396947,-1.290076,-2,1
0.2394202,0.2346318,10.13945,-0.6946565,1.610687,2.694656,0.9864111,0.08858546,10.13466,-0.2824428,1.763359,-3.70229,6.88333,-0.248997,10.15141,1.351145,-1.816794,-19.41221,5.137957,-1.414973,9.246407,-1.122137,-0.1526718,-37.48855,-4.838682,-0.01915361,10.13705,1.572519,-1.603053,24.35878,-6.435614,0.3064578,10.21366,-2.21374,0.5954198,18.17557,-1.51553,-0.1005565,10.09635,-0.2061069,2.259542,-16.70992,0.01197101,-0.05267244,10.10593,-1.480916,-0.2213741,-1.10687,0.1029507,-0.06703765,10.08438,-0.3053435,1.0,0.3587786,0.1532289,-0.03351882,10.08917,1.099237,2.977099,-5.961832,0.01915361,0.0,10.02931,0.4885496,2.10687,-1.374046,1,1
-0.1699883,-0.07182605,10.12508,-0.7251908,1.129771,-1.183206,-0.2035071,-0.1005565,10.07241,-0.8396947,1.465649,-0.2061069,-0.2059013,-0.02873042,10.14423,-1.053435,1.732824,0.8091603,2.300828,-0.2777274,10.21606,-1.259542,1.458015,17.48855,8.231265,-0.1915361,10.20648,0.2442748,-1.946565,29.40458,4.053383,-1.335965,10.97981,-5.335878,-0.7938931,24.22901,-11.66934,1.769315,9.536105,0.8396947,0.5877862,-33.99237,-3.581726,0.296881,9.983821,-0.1755725,0.3816794,-1.78626,-0.1747767,-0.04070143,10.12747,-0.9236641,0.8244275,-16.83969,-0.1412579,-0.1508347,10.13705,-0.6641222,2.534351,2.0,-0.1795651,-0.1101333,10.11311,-1.221374,1.320611,-1.083969,-16,1
0.3878607,0.1460463,10.06522,-0.5572519,1.374046,1.526718,1.06542,0.1053449,10.10114,-1.351145,1.221374,9.015267,4.690241,-1.355118,10.40041,-1.175573,-0.3053435,-11.46565,9.947908,0.3399766,11.79144,-1.900763,-3.618321,41.77099,-1.831564,-1.268927,10.51294,-3.358779,-4.396946,1.312977,-14.85602,2.348712,10.38365,-0.3969466,-0.7862596,14.27481,-0.9720459,-1.005565,9.964667,-0.8473283,-0.1450382,-6.938931,-0.08140286,-0.2106898,10.12029,0.351145,2.282443,-4.503817,-0.04788403,0.01197101,10.14902,-1.045802,0.7633588,-1.099237,-0.05746084,-0.237026,10.11071,-0.7175572,1.343511,-5.267176,-0.5123591,0.06943185,10.1179,-0.7251908,1.137405,0.7862596,-5,1
0.3351882,-0.06703765,10.12508,-0.389313,1.465649,-0.832061,0.1005565,0.03591302,10.16817,-0.9007633,1.236641,0.6870229,-0.04788403,-0.02633622,9.983821,-1.083969,1.374046,-4.08397,-0.05267244,-0.02873042,10.09395,-0.4885496,1.236641,-1.328244,0.2154782,0.009576807,10.04128,-0.6412213,0.5648855,5.458015,1.474828,0.6703765,10.20888,0.6946565,1.061069,-22.23664,12.2655,-0.6081272,9.876082,-11.41221,-0.5954198,-0.0610687,3.450045,0.4979939,10.34774,-4.091603,-0.6717557,37.34351,-7.637504,2.197877,9.89763,3.290076,-7.274809,39.43512,-7.697359,1.848324,9.756371,2.251908,-0.2824428,-4.152672,-1.565808,-0.6919243,10.04368,-0.05343511,0.5725191,-11.75573,-37,1
-0.1963245,-0.05506664,10.20409,-0.8854962,2.167939,-1.259542,5.959168,0.03591302,10.57758,-0.8091603,0.351145,11.62596,13.82412,-0.06703765,10.82179,0.6564885,2.709924,-40.37405,-17.95891,3.172317,9.44752,-3.206107,0.09160305,-37.74046,-2.451663,-1.359907,10.03649,0.2290076,0.1908397,18.06107,-0.1747767,-0.04788403,10.08677,-0.7022901,0.6717557,5.389313,-0.2513912,-0.01915361,10.08917,-0.6641222,1.48855,-0.3816794,-0.1867477,-0.07422025,10.1586,-0.389313,0.9541985,-1.396947,-0.1580173,0.0,10.06522,-0.5725191,1.053435,-1.099237,-0.1604115,-0.05506664,10.05804,-0.3740458,0.8091603,-1.045802,-0.1604115,-0.05267244,10.12987,-0.5725191,1.526718,-1.244275,4,1
0.1675941,-0.08619126,10.02931,-0.8167939,1.587786,-0.09923664,0.1675941,-0.08619126,10.15141,-0.870229,1.480916,0.8396947,0.2035071,-0.05267244,10.12747,-0.5954198,0.9770992,-2.274809,-0.2202666,-0.04070143,10.05804,-0.610687,1.312977,-1.290076,0.4979939,-0.02154782,10.22085,-0.3435115,1.335878,-7.480916,9.696517,1.33357,10.54407,0.4580153,2.251908,-20.47328,17.16403,-0.09097966,11.35331,-3.503817,-0.4045802,81.06871,-19.6133,4.213795,9.576807,0.4351145,-3.267176,-57.78626,-3.70383,-1.151611,10.17775,-1.328244,-1.709924,42.32824,-0.9768343,-0.1173159,10.0748,-0.4732824,1.656489,-22.41985,-0.2825158,-0.1077391,10.04368,-1.175573,0.4427481,0.1908397,-37,1
0.2537854,-0.06943185,10.07959,-0.4656488,0.7709923,-5.198473,0.213084,0.3591303,10.14663,-0.9694656,2.709924,7.870229,3.562572,0.1819593,10.16578,-0.3358779,0.8396947,0.7633588,14.03002,0.9169792,11.066,1.977099,-1.198473,-5.465649,1.841141,-2.06859,10.16099,-2.320611,-2.29771,14.85496,-19.56542,0.8164227,9.890448,-3.900763,-1.51145,8.816793,-3.234566,-0.02394202,10.02452,0.2519084,2.19084,-15.52672,0.2657564,0.2035071,10.12747,-0.778626,1.0,-6.549618,-0.2920926,-0.07422025,10.18493,-1.122137,1.160305,-2.679389,-0.1197101,-0.01436521,10.09156,-0.8015267,0.778626,-1.473282,-0.4333505,-0.1292869,10.06044,-0.832061,1.442748,-3.022901,-5,1
-0.2298434,-0.01915361,10.10832,-1.0,1.557252,-1.282443,1.316811,-0.1699883,10.13705,-1.458015,1.0,3.51145,9.390059,0.8164227,10.50336,-0.7862596,0.648855,-6.435114,16.1441,-1.953669,10.85531,-2.687023,2.900763,86.46565,-19.6133,7.010222,9.169792,-4.992366,2.435115,-10.59542,-3.691859,-1.091756,10.07241,-1.045802,-2.793893,32.01527,-0.09097966,-0.04548983,10.17057,-0.3129771,2.198473,-15.96947,-0.3184288,-0.01675941,10.11311,-0.5267176,1.137405,-9.801527,-0.1675941,-0.02633622,10.14902,-0.7709923,0.4122138,-1.229008,-0.1915361,-0.05746084,10.17775,-0.4885496,1.351145,-1.053435,-0.1556231,-0.06224924,10.1179,-1.015267,1.236641,-1.587786,-2,1
1.223437,0.09097966,10.25197,-0.961832,1.480916,-4.358778,1.113304,0.2992752,10.17057,-1.541985,1.053435,9.954199,4.422091,-0.3160346,10.20648,-0.7328244,2.938931,-14.14504,18.92616,1.805228,10.24958,0.5801527,-3.564885,22.99237,-9.512163,-0.9504981,10.13226,-1.167939,-2.152672,26.06107,-12.44027,1.458069,9.773131,0.3206107,2.48855,-9.961832,-0.3064578,0.1221043,10.19212,-0.2671756,-0.3816794,-5.992366,0.06464344,-0.2466028,10.09395,-1.183206,0.648855,5.832061,-0.1316811,0.0,10.1562,-0.6564885,0.870229,-1.160305,-0.2274492,-0.03351882,10.21127,-0.610687,0.778626,-7.122138,-0.5841852,0.04548983,10.14902,-0.7099237,0.9923664,1.274809,-1,1
0.5123591,-0.2992752,10.12268,-1.793893,1.908397,4.969466,0.9409212,-0.1987187,10.1179,-1.412214,1.251908,-0.6717557,2.276886,-0.01675941,10.05565,-1.671756,2.366412,13.38931,7.867347,0.1460463,10.26634,-0.8931297,1.229008,-3.694656,10.54167,0.5793968,10.51773,0.4427481,-1.48855,25.40458,-11.03248,-0.4668693,9.464279,-3.671756,-1.114504,56.22138,-9.653421,0.1963245,9.627085,-0.2213741,1.908397,-6.320611,-0.1843535,0.06943185,10.05804,-0.7480916,0.8625955,-5.435114,0.007182605,0.237026,10.22803,-1.923664,0.4656488,8.145039,-0.1292869,-0.1771709,10.16099,-0.7175572,1.343511,-1.366412,-0.1699883,0.007182605,10.09635,-0.4045802,1.473282,-1.335878,2,1
0.01675941,-0.03830723,10.11311,-0.6183206,1.366412,-2.816794,0.3734955,0.1005565,10.09156,-1.076336,0.9236641,4.572519,-0.1939303,0.007182605,10.14184,-0.9312977,1.389313,3.923664,0.938527,0.007182605,10.21127,-1.030534,1.664122,5.603054,8.956709,0.1125275,10.39323,0.4656488,1.908397,-8.694656,17.18558,0.272939,10.79306,-4.519084,-5.70229,37.55725,-19.00517,1.934515,9.763555,-1.580153,-0.3664122,-21.30534,-5.767632,0.002394202,9.902418,-0.3969466,2.618321,1.656489,-0.05267244,0.01915361,10.14902,-0.7022901,1.221374,-7.053435,-0.5841852,-0.1412579,10.19691,-0.6259542,0.7557252,1.145038,-0.1436521,-0.09576806,10.17057,-0.9083969,1.335878,-1.099237,-19,1
-0.1891419,-0.06224924,10.08198,-0.9694656,1.832061,-1.259542,2.169147,0.02394202,10.22803,-1.656489,2.40458,10.29008,11.6837,1.01993,10.6135,0.3358779,-0.09160305,-24.51145,-1.80044,-0.9696517,9.844957,-3.763359,0.8473283,62.83969,-11.69807,-3.244143,9.442732,3.0,0.648855,-47.75573,-0.06943185,0.05027823,10.10114,-0.7938931,1.358779,-14.62595,-0.3830723,0.002394202,10.12508,-1.328244,1.091603,8.40458,-0.2154782,0.05506664,10.16099,-0.610687,0.5572519,-1.030534,-0.1843535,-0.08140286,10.15141,-0.5801527,0.6793893,-1.19084,-0.1580173,-0.009576807,10.12029,-0.5572519,0.6641222,-1.183206,-0.1436521,-0.03591302,10.13226,-0.610687,1.519084,-1.19084,0,1
0.3758897,-0.1364695,10.1562,-0.6412213,1.19084,-0.07633588,-0.225055,-0.03351882,10.05325,-0.8244275,1.236641,-1.526718,-0.1149217,0.0,10.06522,-0.7251908,1.259542,2.129771,3.083732,0.1292869,10.21366,-0.8091603,1.145038,0.6564885,19.6127,3.215413,10.63026,1.625954,-1.007634,-2.038168,-2.303222,-4.910508,9.739613,-3.206107,2.091603,22.42748,-17.0108,-3.356671,9.244013,3.854962,3.48855,-70.96947,-0.09576806,0.2896984,10.02931,-0.4274809,1.419847,1.618321,-0.6727707,-0.1484405,10.1586,-0.870229,0.3969466,-5.076336,-0.03351882,-0.1340753,10.21366,-0.9847328,0.8244275,-0.961832,-0.2346318,0.3782839,10.0748,-0.5801527,1.137405,-1.435114,-15,1
0.344765,-0.09097966,10.24958,-1.045802,1.480916,-11.41985,0.5267244,0.08379706,10.16817,-1.007634,1.236641,4.900764,0.5841852,0.3040636,10.24239,-1.274809,2.045802,2.389313,1.771709,0.1963245,10.33098,-0.9312977,-0.351145,4.343512,7.721301,-1.290475,10.24239,2.022901,0.05343511,-30.41985,7.005434,0.5003881,10.14902,-2.175573,3.419847,43.82443,-14.92785,0.1915361,9.744401,-3.847328,2.587786,-4.007634,-5.480328,0.01675941,9.983821,-1.061069,-0.259542,0.610687,-0.08858546,0.1699883,10.05804,-1.229008,0.3053435,0.870229,-0.2082956,-0.1987187,10.14663,-1.122137,1.129771,-0.3129771,-0.1316811,-0.02873042,10.12508,-0.3129771,1.10687,-1.229008,-17,1
-0.1747767,-0.03591302,10.16099,-0.8931297,1.618321,-1.068702,0.6727707,-0.07422025,10.21606,-1.045802,2.580153,8.816793,10.48421,1.307234,10.80264,0.3969466,2.557252,-18.03817,6.019023,-1.247379,10.65659,4.274809,-3.748092,64.85497,-16.8863,1.221043,9.82341,-1.427481,2.129771,-64.89313,-1.240196,0.4141969,10.04128,-0.259542,1.625954,-23.57252,-0.2944868,-0.03112462,10.17057,-1.206107,0.4580153,13.80916,-0.2466028,0.04070143,10.13226,-0.1145038,1.267176,-0.9770992,-0.1580173,-0.009576807,10.12987,-0.8931297,1.007634,-1.526718,-0.28491,-0.06224924,10.25437,-0.9923664,0.6870229,-1.160305,-0.2059013,-0.03351882,10.12268,-0.832061,1.061069,-1.236641,-2,1
-0.1364695,-0.004788404,10.11071,-0.8625955,2.916031,5.61832,1.39582,-0.03830723,10.16099,-0.9694656,1.045802,0.3740458,8.238448,-0.4548983,10.10593,1.396947,3.931298,-18.9771,8.999804,-1.759738,9.11712,-3.129771,-11.23664,49.64885,-9.325416,-0.6440403,10.58237,-5.167939,4.221374,-30.9771,-10.61828,2.226608,9.718064,-2.572519,0.2977099,24.0916,-0.03830723,-0.1915361,10.11311,0.1526718,0.02290076,-6.862596,-0.248997,0.05746084,10.06762,-0.4351145,1.656489,-8.145039,-0.1053449,-0.03830723,10.12029,-1.015267,1.183206,-1.267176,0.04309563,-0.2106898,10.12747,-0.8167939,1.496183,-2.977099,-0.296881,0.05506664,10.06762,-0.8167939,0.6412213,1.083969,-1,1
0.06464344,-0.1364695,10.00776,-1.21374,0.7251908,1.89313,0.1651999,0.2442086,10.0341,-0.7175572,1.541985,-2.045802,-0.1699883,-0.05746084,10.09874,-1.083969,2.717557,5.923664,1.936909,-0.2442086,10.27352,-1.244275,0.870229,2.961832,7.304709,0.866701,10.70448,0.2213741,2.587786,-14.54962,8.109161,-1.343147,10.62547,1.221374,-1.954198,43.61832,-11.66455,-0.4285621,10.54885,-3.503817,-7.557252,-35.61069,-8.968679,1.642422,9.880871,-3.251908,0.6717557,30.8855,-0.1604115,-0.2035071,10.17296,0.832061,0.7709923,-8.297709,-0.2920926,0.1723825,10.13226,-0.7557252,1.717557,-5.366412,-0.1173159,-0.07661445,10.14663,-0.7938931,1.335878,-1.564886,-20,1
-0.2681506,-0.05027823,10.0772,-1.091603,1.137405,3.183206,1.628057,-0.06943185,10.22564,0.1145038,0.832061,-4.496183,16.20396,2.236184,11.066,-0.1755725,1.198473,-18.73282,7.383718,-2.549825,10.57279,-2.396947,-6.236641,38.70229,-19.6133,3.514688,9.708488,3.251908,2.137405,-83.06107,-1.821988,0.04548983,10.0772,-2.396947,1.770992,39.24428,-0.4548983,-0.1532289,10.03649,-0.3969466,0.3587786,-3.687023,-0.1580173,-0.05027823,10.20169,-0.7480916,0.7633588,-0.4580153,-0.2394202,0.07182605,10.12508,-0.648855,0.9923664,-1.80916,-0.2322376,-0.1244985,10.01016,-0.7557252,1.145038,-2.984733,-0.3040636,-0.08858546,10.09156,-0.4885496,1.083969,-3.305344,3,1
0.3567361,-0.1795651,10.1179,-0.5954198,1.656489,4.862596,2.825158,-0.05027823,9.895236,-0.1068702,3.473282,-5.572519,6.888118,-0.5434838,10.14663,-2.51145,-2.832061,-32.62595,0.1819593,-0.5602432,10.59674,0.4961832,-1.015267,-7.770992,-7.216124,-0.007182605,11.49456,-1.259542,2.816794,35.40458,-4.41012,0.7350199,9.842564,1.114504,2.21374,-8.893129,-1.192312,-0.2178724,10.11311,-0.832061,0.7022901,-12.52672,0.05027823,0.03112462,10.1179,-0.7328244,0.3664122,2.198473,0.08858546,0.2896984,10.00297,-1.335878,1.328244,-1.549618,0.1532289,-0.1987187,10.24479,0.4961832,2.450382,-2.251908,0.09576806,0.1747767,10.01734,0.6870229,2.648855,1.427481,5,1
0.9528923,0.06943185,10.17536,-0.5038168,0.5496183,1.053435,0.7517793,0.1173159,10.18733,-1.137405,0.8549618,-3.351145,7.299921,0.225055,10.5297,-0.8625955,-0.2748091,-13.25954,19.6127,-0.7038953,10.87686,0.2977099,6.938931,31.13741,-19.6133,3.694253,7.917625,-2.671756,-3.351145,5.465649,-5.125986,-2.059013,9.962274,-2.458015,-2.076336,72.48092,-0.2801216,-0.07422025,10.19691,-0.2748091,1.580153,-23.22901,-0.4405331,0.02633622,10.1179,-0.6335878,0.9770992,-9.083969,-0.1292869,-0.1268927,10.12029,-0.6946565,1.80916,-1.244275,-0.1723825,-0.03591302,10.10353,-0.7175572,1.732824,-1.458015,-0.1651999,0.05985504,10.13226,-0.6793893,0.4885496,-1.282443,-5,1
0.3639187,-0.1125275,10.13705,-0.6564885,2.389313,-1.59542,0.2178724,0.1604115,10.04607,-0.9236641,1.832061,11.61069,0.08619126,-0.2035071,10.08917,-1.10687,1.40458,4.38168,1.077391,-0.1723825,10.18015,-0.9160305,0.9541985,-0.9312977,5.075707,-0.5889736,10.2831,-0.6793893,2.10687,-1.40458,10.23282,0.5602432,10.27352,0.1526718,-1.183206,-5.778626,10.33337,0.08140286,10.71645,2.557252,-1.251908,14.8397,-16.44098,-1.180341,9.160215,-4.671756,6.419847,12.48855,-7.058106,-0.004788404,10.12987,0.9389313,1.328244,-3.351145,-0.1532289,0.01675941,10.14184,-0.9389313,0.7709923,-1.374046,-0.1580173,-0.1029507,10.04607,-1.801527,0.9083969,0.648855,-16,1
0.6607997,0.03351882,10.13226,-0.7099237,0.961832,-3.984733,-0.04548983,-0.01675941,10.12747,-0.9160305,1.625954,7.534351,1.699883,-0.04548983,10.15141,-0.6793893,1.748092,-12.94657,19.6127,2.212242,10.82179,-2.938931,0.6870229,80.10688,-19.6133,1.898602,9.516952,-2.770992,-0.8167939,47.51909,-6.191406,-1.922544,9.816227,1.541985,0.5877862,-26.58015,-1.161188,0.9816227,9.844957,-1.160305,1.740458,-13.09924,-0.6560113,-0.08858546,10.17536,-1.366412,1.030534,-3.740458,-0.1556231,-0.1795651,10.11071,-1.167939,1.198473,-1.167939,-0.02154782,-0.2059013,10.24718,-0.03816794,0.5648855,-1.053435,-0.1675941,-0.04309563,10.1155,-0.8854962,-0.04580153,-0.9160305,-5,1
0.1675941,-0.03112462,10.16817,-1.40458,0.8091603,-4.603054,0.2226608,-0.03830723,10.12747,0.07633588,2.068702,-3.709924,0.1149217,-0.2035071,10.0341,-0.9847328,1.068702,-6.862596,0.28491,0.0,10.19451,0.1908397,1.167939,-7.328244,0.1580173,0.0,10.09156,-0.2824428,1.641221,-4.755725,1.283292,0.004788404,10.11311,-2.335878,1.0,-4.335878,14.87278,-0.260968,10.40759,-0.389313,-2.839695,-0.1068702,2.600103,-1.491588,11.19289,-4.946565,-3.366412,10.51145,-12.71321,2.762909,10.34295,-8.435115,-1.053435,15.28244,-5.116409,-0.6105214,10.13945,7.717557,1.038168,-24.58015,-0.1915361,-0.09816227,10.08438,-1.564886,0.03816794,14.96183,-37,1
0.6584055,0.09337386,10.09395,0.0610687,1.030534,-6.725191,3.189077,-0.09097966,10.1586,-0.778626,1.580153,-20.51908,19.6127,2.03986,10.39802,-5.358778,-1.206107,101.4733,-9.255983,-4.216189,10.47224,-1.045802,-7.580153,-9.167939,-11.58794,-4.659117,9.758766,-0.3358779,1.198473,5.435114,-0.2059013,0.8810662,10.06522,-0.5419847,1.641221,-1.358779,-0.1747767,0.1795651,10.08438,-1.045802,1.007634,-2.122137,-0.1484405,-0.2633622,10.17057,-0.9465649,1.038168,-0.9083969,-0.2082956,-0.1268927,10.16817,-0.7251908,1.267176,-1.526718,-0.1771709,0.06224924,10.10832,-0.6564885,0.9770992,-1.396947,-0.1939303,-0.07661445,10.1179,-0.5954198,0.5725191,-1.389313,5,1
0.4692635,0.03351882,10.14184,-0.2900764,1.290076,-4.51145,2.334347,-0.1723825,10.06522,-0.9160305,0.5114504,-13.25954,19.6127,3.742137,10.9032,0.6793893,0.1832061,56.67176,-2.217031,-4.644751,9.799467,-1.992366,-4.320611,-16.9313,-16.16086,-1.826776,9.665392,3.412214,0.4427481,-22.18321,-0.1460463,1.137246,10.04128,-0.2824428,1.557252,1.351145,-0.2442086,0.1221043,10.13945,-0.7557252,0.5725191,-1.641221,-0.1723825,-0.1819593,10.0317,-0.9312977,1.145038,-0.9236641,-0.2226608,-0.1173159,10.07001,-0.6412213,1.290076,-1.343511,-0.2178724,0.1675941,10.0772,-0.4656488,0.9083969,-1.045802,-0.1987187,-0.09337386,10.09874,-0.5801527,0.4580153,-1.091603,4,1
-0.2873042,0.05506664,10.15141,-0.870229,0.7328244,-1.572519,0.3184288,-0.1388637,10.10832,-0.5954198,1.206107,-3.648855,-0.1556231,-0.03351882,10.07001,-0.7328244,2.328244,-1.244275,2.523489,0.1316811,10.16578,-1.717557,0.6717557,2.763359,8.508993,0.4477157,10.25676,0.4961832,-0.2900764,-11.9542,10.14902,-2.128445,9.91439,-1.572519,3.389313,-0.5267176,-14.60224,-0.8954314,9.816227,-5.08397,-0.6793893,41.39695,-7.78355,-0.04070143,9.902418,-0.06870229,1.648855,-15.98473,-0.1460463,0.1149217,10.06044,-0.9847328,0.4122138,2.251908,-0.1963245,-0.07900865,10.16578,-1.48855,1.374046,2.045802,-0.1580173,-0.07900865,10.13945,-0.7175572,0.9236641,-1.412214,-20,1
0.4094085,-0.01436521,10.0772,-0.5725191,1.473282,-3.442748,-0.04070143,0.01197101,10.09635,-0.8854962,1.335878,9.175572,2.920926,-0.4908113,10.18493,-0.5114504,0.961832,-9.374045,19.6127,-0.3256114,11.59273,-3.923664,-5.412214,86.67175,-19.6133,3.177106,9.129091,8.282443,-4.374046,29.25954,-6.296751,-1.671153,9.983821,-0.7557252,0.2442748,-4.870229,-0.7685388,0.56982,10.1155,-0.4503817,1.145038,-9.931297,-0.3734955,-0.02154782,10.14423,-0.8244275,0.7938931,-1.351145,-0.1556231,-0.1484405,10.1179,-1.091603,0.9465649,-1.709924,0.1292869,-0.05267244,9.988609,0.2900764,2.824427,-1.282443,-0.1292869,0.007182605,10.13466,-0.7633588,0.3129771,-1.038168,-4,1
-0.8331822,0.2418144,10.19212,-0.03816794,1.732824,0.7938931,-0.4141969,0.07182605,10.18493,-1.0,0.9694656,11.9771,0.1436521,-0.03830723,10.17057,-1.465649,1.19084,4.778626,1.144428,-0.2920926,10.23042,-1.442748,1.450382,-2.167939,2.32477,0.1628057,10.10114,-1.633588,2.198473,15.10687,9.598354,0.2896984,10.22564,-1.587786,1.015267,-11.46565,11.63582,0.4620809,10.21127,-1.961832,-4.419847,25.31298,-13.45063,-0.9744401,9.342175,-1.969466,1.641221,38.15267,-8.015787,-0.2513912,10.02931,1.015267,1.152672,-7.358778,-0.2154782,0.09576806,10.06762,-1.045802,0.8549618,-2.946565,-0.2274492,-0.1915361,10.0748,-1.633588,0.9083969,3.229008,-17,1
-0.05027823,-0.004788404,10.04607,-0.3587786,0.8396947,-3.290076,-0.03351882,-0.07422025,10.05325,-0.1145038,1.145038,-0.04580153,0.1197101,-0.01675941,10.14184,-0.351145,0.5801527,-2.473282,3.198653,-0.2801216,10.14184,-0.9312977,1.076336,1.175573,8.896853,-0.7086837,9.991004,-5.274809,-5.877862,34.60305,0.06224924,0.03351882,11.05882,-0.2137404,6.244275,-7.442748,-5.125986,-0.1484405,9.955091,-0.4732824,-0.01526718,11.80916,-3.754108,0.3639187,10.05086,-0.2519084,1.091603,-17.58779,-1.51553,0.09816227,9.976639,-0.1755725,1.396947,-12.27481,-0.4285621,-0.1364695,10.0772,-0.8931297,0.5572519,-2.51145,0.1005565,-0.1388637,10.13945,-0.6641222,1.648855,-0.9312977,-15,1
-0.1604115,-0.09576806,10.10353,-0.8091603,1.977099,-2.442748,-0.09576806,0.04070143,10.17057,-0.8931297,1.351145,-4.954198,1.086968,0.1628057,10.24,-0.832061,0.9847328,-2.625954,1.644816,0.3687071,10.22803,-1.335878,1.129771,13.74809,6.749255,-0.09097966,10.57758,-0.3358779,0.3587786,-12.99237,15.20318,1.321599,11.08994,-1.251908,-3.320611,38.77099,-15.97411,0.9050082,9.440337,-6.0,3.290076,42.96947,-8.300697,0.5195417,9.698911,0.6564885,3.694656,-12.96183,-0.1436521,0.009576807,10.08198,-0.7099237,-0.09923664,-1.610687,-0.4644751,-0.1699883,10.08917,-1.045802,0.870229,2.40458,-0.1580173,-0.06224924,10.13226,-0.6030535,0.7251908,-0.961832,-19,1
0.7733272,0.03351882,10.12987,-0.5801527,0.7709923,-2.236641,1.357512,0.4141969,10.17775,-0.7862596,0.8778625,-0.129771,9.861717,0.3016694,10.35492,-0.5801527,0.9694656,-9.358779,17.75779,-1.486799,11.31979,1.236641,-8.61832,30.38168,-19.6133,5.805939,9.124303,0.3664122,-2.824427,20.08397,-3.600879,-0.8499416,10.10114,-2.564885,-1.40458,73.03053,-0.04070143,-0.1460463,10.08917,-0.05343511,1.694656,-20.87786,-0.3663129,0.04788403,10.14184,-1.206107,1.358779,-4.900764,-0.1268927,-0.1125275,10.14184,-0.5572519,1.183206,-1.442748,-0.1771709,-0.1292869,10.09156,-0.3206107,1.839695,-1.145038,-0.1939303,0.08619126,10.1155,-0.3969466,0.9847328,-1.496183,-4,1
0.2920926,0.09097966,10.12747,-0.480916,1.137405,7.198473,1.814805,0.3639187,10.29267,0.2671756,2.068702,-5.320611,7.805098,-0.1244985,10.25197,-3.938931,0.7328244,-26.31298,1.422156,-0.009576807,10.16578,-2.381679,0.03053435,-6.870229,-6.900089,0.6607997,11.81299,-3.022901,-1.961832,31.57252,-5.497087,0.9768343,10.10593,-0.4351145,1.045802,2.328244,-0.866701,-0.1053449,10.05086,-1.030534,0.9847328,-11.75573,0.06703765,-0.002394202,10.08198,-0.9541985,0.1526718,0.08396947,0.06464344,-0.03351882,10.14423,0.3206107,1.40458,-0.2290076,0.1580173,-0.2035071,10.07001,-0.7633588,1.679389,-3.641221,0.03591302,0.04309563,10.0772,2.045802,2.679389,1.137405,4,1
-0.1197101,0.03112462,10.12987,-1.038168,1.083969,5.183206,1.292869,0.1508347,10.20888,0.06870229,0.8549618,-2.335878,14.75307,1.877054,10.31662,0.02290076,2.473282,-35.18321,9.16261,-1.556231,10.24718,0.2824428,-2.984733,39.14504,-19.6133,6.655881,10.09635,-0.8931297,1.717557,-53.8397,-2.054225,0.03351882,10.0317,-1.954198,-0.06870229,45.38931,-0.5674258,-0.09097966,10.02692,-0.3587786,0.8473283,-5.435114,-0.2681506,-0.04548983,10.15381,-0.9465649,0.8778625,-0.1832061,-0.1987187,-0.05506664,10.16578,-0.6259542,1.137405,-1.877863,-0.2944868,-0.04788403,10.1155,-0.4885496,1.312977,-5.099236,-0.1268927,-0.04070143,10.13226,-0.6793893,1.274809,-1.541985,2,1
-0.1699883,-0.01197101,10.14423,-0.7022901,1.465649,-1.381679,0.02633622,-0.01675941,10.17536,-1.80916,2.694656,3.725191,9.964667,0.9433154,10.1993,1.59542,1.977099,-10.76336,8.645462,-0.4381389,10.29028,0.9465649,-5.38168,28.93893,-19.6133,0.5315128,9.840169,-1.59542,7.40458,-55.22138,-0.5075707,0.01197101,10.22324,0.4351145,0.8549618,-23.74809,-0.2202666,-0.06224924,10.22324,-0.870229,0.2137404,12.89313,-0.1723825,-0.04788403,10.10114,-0.3053435,1.137405,-1.267176,-0.1651999,-0.04070143,10.13466,-0.6564885,1.045802,-1.473282,-0.1604115,-0.03830723,10.10353,-0.832061,0.6335878,-1.320611,-0.1460463,-0.05027823,10.1562,-0.778626,0.8931297,-1.427481,-3,1
-0.05027823,-0.1963245,10.12029,-0.2748091,2.160305,-11.22901,0.842759,0.1604115,10.18733,-0.4274809,1.29771,4.412214,0.7637503,0.5195417,10.14184,-1.358779,1.679389,4.038168,2.03986,-0.09337386,10.34056,-0.2366412,0.4656488,1.496183,8.698134,-0.770933,10.72602,1.458015,-0.04580153,-37.42748,2.896984,-0.7661445,9.512163,-0.7328244,-5.496183,28.83206,-15.35162,-0.2753332,9.821015,1.847328,1.145038,-5.160306,-4.13718,-0.05506664,9.976639,-1.656489,0.610687,7.679389,-0.1484405,0.06224924,10.10832,-1.320611,0.4580153,2.312977,-0.1364695,-0.1244985,10.10353,-0.8549618,1.465649,-1.320611,-0.1604115,-0.009576807,10.06283,-0.6183206,1.259542,-1.396947,-16,1
-0.1412579,-0.04548983,10.1155,-1.145038,1.908397,-1.045802,3.368642,-0.1819593,10.49379,-1.59542,2.389313,16.29771,13.26388,0.3687071,10.39323,0.5038168,-1.954198,-37.77099,-8.453926,-0.08379706,9.471462,-1.755725,3.816794,48.55725,-7.843405,-4.46758,9.720459,3.725191,0.3053435,-26.70229,0.1604115,-0.1843535,10.13945,-0.6030535,1.854962,-17.40458,-0.2274492,-0.01436521,10.15141,-1.045802,1.48855,5.435114,-0.1723825,0.0,10.09874,-0.7022901,0.7175572,-1.244275,-0.1460463,-0.03351882,10.12029,-0.4351145,0.9465649,-1.19084,-0.1675941,-0.01675941,10.15141,-0.778626,0.6946565,-1.045802,-0.1604115,-0.02394202,10.10832,-0.7938931,1.534351,-1.259542,1,1
0.1436521,-0.03830723,10.17057,-1.465649,1.19084,4.778626,1.144428,-0.2920926,10.23042,-1.442748,1.450382,-2.167939,2.32477,0.1628057,10.10114,-1.633588,2.198473,15.10687,9.598354,0.2896984,10.22564,-1.587786,1.015267,-11.46565,11.63582,0.4620809,10.21127,-1.961832,-4.419847,25.31298,-13.45063,-0.9744401,9.342175,-1.969466,1.641221,38.15267,-8.015787,-0.2513912,10.02931,1.015267,1.152672,-7.358778,-0.2154782,0.09576806,10.06762,-1.045802,0.8549618,-2.946565,-0.2274492,-0.1915361,10.0748,-1.633588,0.9083969,3.229008,-0.1101333,-0.1436521,10.04607,-0.7709923,1.427481,-1.259542,-0.1412579,0.03830723,10.1155,-0.5419847,1.038168,-1.259542,3,1
0.6081272,-0.09097966,10.1179,-0.9389313,1.503817,-3.931298,1.529895,0.2777274,10.27112,-1.076336,0.7633588,2.572519,7.194576,0.5746084,10.38365,-0.9236641,1.389313,-5.839694,16.86476,0.2657564,10.91277,-4.480916,2.091603,97.0,-19.6133,2.851494,9.224859,-2.687023,1.923664,-18.32825,-4.81474,-2.118869,10.0748,-0.6259542,-1.587786,21.9313,-0.01436521,-0.06224924,10.05325,-0.2290076,2.007634,-9.893129,-0.2442086,0.009576807,10.1155,-0.6717557,1.473282,-12.72519,-0.1628057,-0.04309563,10.02452,-1.022901,1.10687,-1.358779,-0.1771709,-0.06224924,10.09635,-0.3053435,1.450382,-1.358779,-0.1604115,-0.05506664,10.09156,-0.9160305,0.7557252,-1.40458,-3,1
-0.2035071,-0.01915361,10.08917,-1.244275,2.030534,-0.1068702,1.731008,-0.1149217,10.22324,-1.076336,1.259542,4.458015,10.60392,1.352724,10.51294,0.09160305,-0.389313,-1.259542,11.70765,-1.503559,10.24479,-1.320611,6.458015,67.67175,-19.6133,8.480263,8.41083,-2.984733,3.900763,-12.61832,-3.332729,-0.5195417,9.883265,-0.961832,-1.198473,30.8855,0.2920926,0.05267244,10.03649,0.03816794,2.580153,-24.89313,-0.213084,-0.05506664,10.18733,-0.519084,1.076336,-7.725191,-0.1939303,-0.03591302,10.05325,-0.8167939,0.6641222,-1.152672,-0.1723825,-0.06464344,10.11071,-0.4427481,1.274809,-1.145038,-0.1675941,-0.07900865,10.06762,-1.083969,1.206107,-1.648855,-1,1
-0.1915361,-0.06224924,10.1562,-0.610687,1.977099,-1.152672,5.12838,0.2106898,10.25916,-1.557252,1.984733,15.23664,14.50886,0.07900865,10.15381,0.3435115,3.870229,-46.67176,-17.31247,2.37026,9.691729,-3.458015,-2.946565,-7.259542,-3.361459,-2.578555,9.988609,0.9236641,1.473282,16.06107,-0.1340753,-0.2106898,10.17057,-0.6717557,0.9312977,-1.083969,-0.260968,-0.002394202,10.10114,-0.7251908,1.40458,1.114504,-0.1843535,-0.03830723,10.13705,-0.5572519,0.7099237,-1.312977,-0.1460463,-0.007182605,10.13466,-0.2900764,0.9770992,-1.335878,-0.1771709,-0.07182605,10.13466,-0.5877862,0.7175572,-0.7175572,-0.1628057,-0.01675941,10.10353,-0.6870229,1.061069,-1.320611,3,1
0.6009446,0.1891419,10.13705,-0.778626,1.534351,-4.801527,0.9481038,0.3375824,10.12029,-1.343511,1.267176,5.603054,4.187459,-0.1723825,10.12268,0.4045802,2.480916,-13.52672,18.85194,0.4501099,10.83616,2.572519,3.343511,15.19847,-7.706935,0.4429273,10.74278,-1.648855,-7.732824,20.96183,-13.94623,1.053449,10.00776,-0.9465649,1.10687,-5.099236,-0.4357447,0.04788403,10.09156,-0.2213741,0.5954198,-10.33588,0.07661445,-0.1795651,10.1586,-1.091603,1.419847,3.641221,-0.1388637,-0.03591302,10.09874,-0.5725191,0.8015267,-1.122137,-0.1628057,-0.03830723,10.09395,-0.8778625,0.5496183,-6.725191,-0.6368576,-0.06703765,10.07959,-0.9160305,1.328244,0.3206107,-2,1
0.3256114,-0.2274492,10.05325,-0.6641222,0.5496183,6.770992,0.8523358,-0.1101333,10.1586,-1.442748,1.541985,-0.6183206,1.280898,0.02394202,10.35971,-1.198473,2.381679,6.229008,6.543353,0.2346318,10.34535,-0.3587786,-1.0,-4.580153,12.11706,0.3878607,10.45308,1.099237,0.6946565,20.47328,-7.630321,-0.842759,10.05804,2.633588,1.916031,50.96947,-11.93988,0.4141969,9.64145,-0.3587786,2.557252,-16.03817,-0.2705448,0.07182605,10.09635,-0.3587786,0.8854962,-6.473282,-0.1771709,0.03830723,10.10114,-1.351145,0.4351145,6.129771,-0.08379706,-0.2059013,10.16578,-0.8167939,1.374046,-0.961832,-0.1771709,0.01675941,10.10353,-0.4427481,1.48855,-0.9236641,1,1
0.2873042,-0.03591302,10.18972,-0.7938931,1.458015,-1.374046,0.1029507,0.02154782,10.10593,-0.9694656,1.320611,-1.916031,-0.2059013,0.04070143,10.09874,-1.129771,1.137405,2.633588,2.073379,0.02873042,10.24479,-0.7633588,0.9312977,-3.480916,18.89983,2.937685,10.64701,-0.4274809,0.9923664,-3.725191,3.687071,-3.89776,10.11071,-4.374046,-0.9694656,32.94657,-19.6133,0.1604115,9.11712,3.083969,0.9389313,-93.39695,-0.2537854,0.3519476,10.22324,-1.992366,1.732824,19.0687,-0.5482722,-0.08379706,10.16339,-1.007634,0.259542,-4.603054,-0.1149217,-0.08619126,10.0772,-1.0,0.9236641,-0.7175572,-0.2681506,0.2896984,10.08198,-0.7709923,0.9694656,-1.801527,-16,1
-0.2011129,-0.01675941,10.1155,-0.961832,1.503817,-1.083969,1.161188,0.01915361,10.12987,-1.473282,2.198473,7.564886,11.11388,1.450886,10.59674,1.129771,0.1603053,-22.06107,-0.2298434,-1.695095,10.10114,-2.389313,-1.778626,109.5343,-14.698,-2.185906,9.758766,1.961832,1.885496,-58.74046,-0.6919243,0.2633622,10.09395,-0.8473283,1.076336,-15.0687,-0.4884171,0.03830723,10.16578,-1.366412,0.480916,11.96183,-0.1795651,0.0,10.07241,-0.6335878,1.061069,-1.068702,-0.1723825,-0.01915361,10.16578,-0.5648855,0.961832,-1.59542,-0.237026,0.02154782,10.15381,-1.122137,0.6870229,-1.328244,-0.1628057,-0.05267244,10.1179,-0.519084,1.465649,-1.343511,-1,1
-0.1556231,0.007182605,10.08917,-0.2061069,2.48855,3.847328,1.254562,0.1580173,10.16817,-0.9389313,0.6641222,1.366412,6.418855,0.6919243,10.41238,-0.2824428,3.19084,-19.33588,9.895236,-1.683124,10.94629,-3.335878,-5.725191,54.23664,-7.515399,-1.127669,10.93192,0.7099237,1.442748,-25.69466,-12.06199,3.181894,9.684546,-1.740458,2.412214,19.48092,-0.1675941,-0.1891419,10.08677,0.4732824,-0.3969466,-10.35115,-0.2298434,0.01197101,10.07241,-0.5419847,1.541985,-9.358779,-0.04788403,-0.04070143,10.1179,-1.007634,1.305344,-1.21374,0.03830723,-0.1939303,10.1155,-0.4732824,1.427481,-3.51145,-0.4644751,0.1029507,10.12747,-0.5725191,0.740458,1.70229,-2,1
-0.2322376,-0.07182605,10.13226,-1.061069,0.9847328,-1.274809,0.5913678,0.07661445,10.14902,-0.4198473,0.8091603,-0.8244275,9.830592,0.3758897,10.45548,0.9541985,0.7022901,-33.32824,15.97172,0.1675941,11.15219,-1.496183,-2.541985,46.39695,-19.6133,7.369353,9.751583,-2.496183,2.450382,-36.50382,-4.065354,-1.496376,10.28788,-2.114504,-4.923664,72.80153,-0.7326257,0.07182605,10.01016,-0.1908397,1.396947,-3.244275,-0.344765,0.04788403,10.12029,-1.160305,1.091603,-0.7709923,-0.1675941,-0.1460463,10.16578,-0.648855,0.9770992,-1.290076,-0.2418144,-0.002394202,10.08917,-0.4732824,1.244275,-8.969465,-0.09816227,-0.09576806,10.08198,-0.648855,1.206107,1.282443,0,1
-0.3926491,-0.2154782,10.10593,-1.160305,0.4961832,16.81679,0.0,-0.1987187,10.1155,-0.8625955,1.343511,10.65649,0.4572925,-0.1077391,10.06762,-0.4656488,0.4961832,0.5267176,0.5913678,0.1197101,10.19451,-0.6030535,1.114504,0.7251908,0.4979939,0.08858546,10.22085,-0.8778625,1.954198,3.427481,-3.143587,0.3974375,9.880871,-3.129771,1.358779,94.48855,10.58477,1.553837,10.35971,-0.2442748,0.2748091,16.66412,2.72939,-1.711854,10.00297,0.3053435,-0.7251908,22.41221,-14.06115,1.723825,9.452309,-3.671756,0.610687,-2.847328,-3.754108,-0.5051765,10.06762,-2.236641,1.129771,15.20611,0.1173159,-0.1628057,10.18493,0.648855,2.061069,-4.885496,-37,1
-0.2202666,0.1915361,10.03649,-1.473282,-0.03816794,11.31298,0.4572925,-0.05027823,10.22564,-1.145038,1.572519,2.305344,1.276109,0.1005565,10.13466,-1.053435,1.19084,-1.603053,4.491522,0.05027823,10.21845,-1.312977,2.427481,-0.6717557,10.36929,0.8259995,10.21845,0.5114504,2.045802,0.3969466,8.930372,0.3830723,9.957485,-1.587786,4.938931,14.07634,-17.80089,-0.4764462,9.411607,0.6870229,-2.427481,-23.29771,-5.415684,-0.05267244,9.947908,0.9847328,1.145038,-4.007634,-0.1747767,0.05506664,10.17536,-1.068702,0.8549618,-1.099237,-0.1101333,-0.04548983,10.17296,-1.679389,0.8167939,-0.648855,-0.1077391,-0.1173159,10.17057,-0.6564885,1.557252,-1.48855,-5,1
0.06943185,-0.1412579,10.09635,0.7022901,1.877863,-0.2824428,-0.02633622,0.02873042,10.11311,-2.038168,1.091603,-1.717557,0.2394202,0.2346318,10.13945,-0.6946565,1.610687,2.694656,0.9864111,0.08858546,10.13466,-0.2824428,1.763359,-3.70229,6.88333,-0.248997,10.15141,1.351145,-1.816794,-19.41221,5.137957,-1.414973,9.246407,-1.122137,-0.1526718,-37.48855,-4.838682,-0.01915361,10.13705,1.572519,-1.603053,24.35878,-6.435614,0.3064578,10.21366,-2.21374,0.5954198,18.17557,-1.51553,-0.1005565,10.09635,-0.2061069,2.259542,-16.70992,0.01197101,-0.05267244,10.10593,-1.480916,-0.2213741,-1.10687,0.1029507,-0.06703765,10.08438,-0.3053435,1.0,0.3587786,-19,1
-0.05506664,-0.07661445,10.08677,-0.7938931,1.068702,-2.40458,-0.06703765,-0.1125275,10.07001,-0.129771,1.664122,-0.9007633,0.06703765,-0.03591302,10.1155,-0.3740458,0.4580153,-1.389313,1.776498,-0.1149217,10.10114,0.09923664,1.244275,3.167939,10.12029,-0.1173159,10.12508,-4.351145,1.198473,27.39695,2.20506,-0.1771709,9.821015,2.305344,7.931298,-26.35878,-6.038177,1.082179,10.3238,-3.557252,-5.244275,5.290076,-4.807557,0.3687071,9.830592,0.1679389,-1.48855,-12.36641,-2.621651,0.2944868,10.26394,1.030534,1.396947,-6.40458,-0.7852982,-0.08619126,10.12747,-0.7251908,0.6564885,-3.274809,0.1221043,-0.1556231,10.11071,-1.053435,1.610687,-1.007634,-17,1
-0.02873042,-0.2035071,10.27831,-1.122137,2.351145,-1.435114,-0.2202666,0.1915361,10.03649,-1.473282,-0.03816794,11.31298,0.4572925,-0.05027823,10.22564,-1.145038,1.572519,2.305344,1.276109,0.1005565,10.13466,-1.053435,1.19084,-1.603053,4.491522,0.05027823,10.21845,-1.312977,2.427481,-0.6717557,10.36929,0.8259995,10.21845,0.5114504,2.045802,0.3969466,8.930372,0.3830723,9.957485,-1.587786,4.938931,14.07634,-17.80089,-0.4764462,9.411607,0.6870229,-2.427481,-23.29771,-5.415684,-0.05267244,9.947908,0.9847328,1.145038,-4.007634,-0.1747767,0.05506664,10.17536,-1.068702,0.8549618,-1.099237,-0.1101333,-0.04548983,10.17296,-1.679389,0.8167939,-0.648855,-15,1
-0.1675941,-0.06464344,10.10114,-0.8473283,1.450382,0.6259542,-0.1508347,-0.07182605,10.10832,-1.793893,1.938931,1.48855,2.530671,0.1484405,10.27591,-1.053435,1.290076,14.69466,8.248025,-0.4548983,10.04846,-0.6564885,-1.763359,30.59542,1.843535,-1.446098,10.29267,-1.51145,-2.755725,21.22138,-13.09628,2.293645,10.13226,3.053435,2.251908,-18.44275,-3.174711,0.6464345,10.12747,0.3206107,0.6564885,-10.22138,0.1077391,0.06703765,10.08198,-0.9770992,1.053435,-12.96183,-0.1795651,-0.1556231,10.09635,-0.6030535,2.152672,1.709924,-0.1484405,-0.1125275,10.13945,-1.259542,1.70229,-1.503817,-0.1316811,-0.08140286,10.12029,-2.366412,1.78626,-1.51145,-5,1
0.1244985,-0.2513912,10.09874,-0.9007633,1.320611,-5.59542,0.1436521,-0.04788403,10.10353,0.3664122,1.305344,-7.198473,0.2513912,0.1628057,10.17296,0.6793893,2.442748,-1.175573,0.7254431,-0.1029507,10.11071,-0.8091603,0.7328244,0.08396947,8.482656,1.063026,10.07959,4.938931,1.755725,-12.80153,7.659051,-2.492364,10.23042,-4.648855,9.648855,26.61832,-9.531317,2.219425,9.41879,6.129771,3.320611,10.20611,-8.698134,0.7469909,10.19212,8.145039,2.656489,-23.52672,-0.581791,-0.3591303,10.13705,0.9236641,1.366412,-5.396946,0.1173159,0.004788404,10.06283,-2.625954,1.183206,9.992367,0.05267244,-0.08140286,10.1155,-0.6259542,0.9465649,7.137404,-20,1
-0.1651999,-0.06464344,10.17057,-0.6946565,1.458015,6.793893,2.44448,0.04548983,10.25437,-1.335878,2.450382,9.320611,12.55519,-0.3543419,10.62786,3.038168,-0.4732824,-12.41221,3.572149,-0.8188169,11.2719,-7.587786,-14.94656,53.78626,-18.8304,1.137246,9.473856,0.03816794,-1.679389,15.58779,-2.264915,-0.272939,10.00058,-0.6641222,1.396947,-2.389313,-0.1819593,0.2825158,10.11311,-1.022901,0.7099237,-2.480916,-0.1484405,-0.1460463,10.13705,-0.9236641,0.8015267,-1.137405,-0.1699883,-0.05027823,10.0772,-0.7328244,1.137405,-1.603053,-0.1867477,-0.01915361,10.16339,-1.015267,0.8931297,-1.19084,-0.1532289,-0.1316811,10.13466,-0.8091603,0.8625955,-0.7633588,4,1
-0.2011129,-0.06943185,10.17536,-0.9160305,1.564886,7.541985,2.813187,-0.2537854,10.23521,-1.366412,1.961832,9.259542,13.49612,-0.237026,10.50815,2.877863,-1.351145,-9.366412,-0.5315128,-3.210624,10.2831,-9.244275,-1.366412,41.70229,-17.6716,0.56982,9.756371,0.1908397,-4.152672,8.122137,-1.826776,0.1891419,10.06283,-0.9160305,1.19084,-7.954198,-0.5506664,0.213084,10.1179,-0.6793893,1.007634,-0.3969466,-0.1628057,-0.1364695,10.04368,-0.9160305,0.6335878,-1.458015,-0.1412579,-0.03112462,10.14663,-0.7328244,1.152672,-1.236641,-0.1915361,0.0,10.12029,-0.9083969,1.114504,-1.221374,-0.1771709,-0.1580173,10.14902,-0.5496183,0.9236641,-1.137405,5,1
-0.2801216,0.03351882,10.12268,-0.3816794,0.4427481,0.3282443,0.2059013,-0.09097966,10.12268,-1.167939,1.778626,-1.129771,-0.225055,0.05506664,10.05804,-0.6183206,1.152672,-2.496183,0.5793968,-0.07661445,10.0317,-0.6641222,1.267176,-2.381679,0.6153098,0.08140286,10.16578,-0.9083969,2.435115,5.198473,2.576161,-0.1125275,10.17536,-0.2824428,1.015267,-3.557252,12.77307,0.7134721,10.13226,-2.496183,0.7938931,-3.480916,-1.027112,0.842759,10.88165,-3.076336,-4.984733,-18.41985,-14.53759,0.7733272,9.576807,-4.664122,7.19084,-0.6030535,-3.308787,0.2202666,10.12747,0.07633588,0.1603053,5.068702,-0.05506664,-0.01436521,10.1179,-1.251908,0.6183206,0.7709923,-37,1
